"Time (s)","Acceleration x (m/s^2)","Acceleration y (m/s^2)","Acceleration z (m/s^2)"
6.450557000E-3,8.501100540E0,1.016949654E0,4.442873478E0
2.447948700E-2,8.469395638E0,1.097707391E0,4.657629490E0
4.249578500E-2,8.446065903E0,1.126421213E0,4.695316315E0
6.054015600E-2,8.431708336E0,1.068993568E0,4.805984497E0
7.856975800E-2,8.469395638E0,1.049252748E0,4.838885784E0
9.659716400E-2,8.498109818E0,1.077966571E0,4.800600529E0
1.146232260E-1,8.512466431E0,1.097109199E0,4.733601570E0
1.326509960E-1,8.493324280E0,1.121635556E0,4.690530777E0
1.506815140E-1,8.436494827E0,1.112662554E0,4.719244480E0
1.687084920E-1,8.493324280E0,1.097109199E0,4.781457901E0
1.867376660E-1,8.436494827E0,1.068993568E0,4.810171604E0
2.047665970E-1,8.459824562E0,1.054636598E0,4.786841869E0
2.227967480E-1,8.493324280E0,1.054038405E0,4.810171604E0
2.408247630E-1,8.469993591E0,1.111466169E0,4.838885784E0
2.588539990E-1,8.475378036E0,1.188036442E0,4.781457901E0
2.768818310E-1,8.475378036E0,1.178465128E0,4.709673405E0
2.949119830E-1,8.431708336E0,1.107278705E0,4.776672363E0
3.129400590E-1,8.392825127E0,1.031306505E0,4.834698200E0
3.309688680E-1,8.459226608E0,9.780662656E-1,4.868197441E0
3.489976150E-1,8.634500504E0,9.667003751E-1,4.786243439E0
3.670272780E-1,8.568099976E0,1.000798106E0,4.758127689E0
3.850554150E-1,8.564510345E0,1.101296663E0,4.728815556E0
4.030850170E-1,8.707481384E0,1.113858938E0,4.723432064E0
4.211130940E-1,8.726624489E0,1.141974568E0,4.713860512E0
4.391428790E-1,8.428717613E0,1.188036442E0,4.934000492E0
4.571704670E-1,8.391031265E0,1.222134113E0,4.900500774E0
4.751995190E-1,8.381459236E0,1.270588875E0,4.766502857E0
4.932285720E-1,8.337790489E0,1.228116274E0,4.704887390E0
5.112585400E-1,8.461020470E0,1.173679471E0,4.781457901E0
5.292872890E-1,8.294121742E0,1.118644595E0,4.767699242E0
5.473164020E-1,8.356932640E0,1.160519004E0,4.834099770E0
5.653438070E-1,8.537590981E0,1.196411371E0,4.828716278E0
5.833736530E-1,8.561519623E0,1.191625714E0,4.809573650E0
6.014013630E-1,8.556135178E0,1.162911773E0,4.795216560E0
6.194307210E-1,8.593822479E0,1.148554921E0,4.714458942E0
6.374592240E-1,8.607581139E0,1.124626637E0,4.666602135E0
6.554890700E-1,8.550153732E0,1.096511006E0,4.666602135E0
6.735173900E-1,8.507680893E0,1.111466169E0,4.685744762E0
6.915471760E-1,8.498707771E0,1.144965649E0,4.733601570E0
7.095748250E-1,8.499305725E0,1.178465128E0,4.728815556E0
7.276024740E-1,8.536993027E0,1.201795220E0,4.690530777E0
7.456198690E-1,8.461619377E0,1.226321578E0,4.724030018E0
7.636487990E-1,8.428717613E0,1.241276741E0,4.761716843E0
7.816904860E-1,8.481359482E0,1.255035520E0,4.771288395E0
7.997225290E-1,8.461619377E0,1.235892892E0,4.742574692E0
8.177512770E-1,8.480163574E0,1.197607756E0,4.771288395E0
8.357780110E-1,8.499305725E0,1.197607756E0,4.719244480E0
8.538064530E-1,8.437690735E0,1.202991605E0,4.776672363E0
8.718358110E-1,8.528617859E0,1.230509043E0,4.761716843E0
8.898635210E-1,8.508877754E0,1.187438250E0,4.771288395E0
9.078929400E-1,8.546564102E0,1.158724308E0,4.761716843E0
9.259211990E-1,8.498707771E0,1.168893814E0,4.762315273E0
9.439511670E-1,8.509475708E0,1.230509043E0,4.790431023E0
9.619750930E-1,8.480761528E0,1.240678549E0,4.747360229E0
9.799937090E-1,8.394619942E0,1.203589797E0,4.747958183E0
9.980368000E-1,8.409575462E0,1.202991605E0,4.786243439E0
1.016063960E0,8.542376518E0,1.235294700E0,4.723432064E0
1.034084895E0,8.528019905E0,1.235294700E0,4.728217602E0
1.052123348E0,8.466404915E0,1.221535921E0,4.771288395E0
1.070152034E0,8.442476273E0,1.212562919E0,4.781457901E0
1.088185481E0,8.495118141E0,1.230509043E0,4.766502857E0
1.106210322E0,8.589634895E0,1.239482164E0,4.694717884E0
1.124240047E0,8.461619377E0,1.221535921E0,4.714458942E0
1.142267696E0,8.418548584E0,1.208375454E0,4.685744762E0
1.160298091E0,8.499305725E0,1.202393413E0,4.695316315E0
1.178325923E0,8.508877754E0,1.220937729E0,4.723432064E0
1.196354244E0,8.547162056E0,1.244866014E0,4.713860512E0
1.214381710E0,8.666205406E0,1.271785259E0,4.637290478E0
1.232408504E0,8.456234932E0,1.212562919E0,4.657031059E0
1.250440913E0,8.456833839E0,1.245464206E0,4.719244480E0
1.268472591E0,8.471788406E0,1.269392371E0,4.733003139E0
1.286507747E0,8.523832321E0,1.249651670E0,4.699503899E0
1.304528621E0,8.537590981E0,1.240080357E0,4.675575256E0
1.322556087E0,8.504690170E0,1.240678549E0,4.680361271E0
1.340583492E0,8.519046783E0,1.268794179E0,4.661218643E0
1.358614070E0,8.571090698E0,1.268195987E0,4.622933388E0
1.376644100E0,8.514261246E0,1.249651670E0,4.704289436E0
1.394672053E0,8.437690735E0,1.222134113E0,4.752744198E0
1.412702571E0,8.528617859E0,1.249651670E0,4.728217602E0
1.430730037E0,8.523832321E0,1.268794179E0,4.656432629E0
1.448759578E0,8.590232849E0,1.282552958E0,4.594219685E0
1.466786739E0,8.627322197E0,1.244267821E0,4.532006264E0
1.484816097E0,8.541778564E0,1.231107235E0,4.551746845E0
1.502844966E0,8.499305725E0,1.245464206E0,4.613960266E0
1.520868037E0,8.532805443E0,1.259222865E0,4.670789719E0
1.538875789E0,8.571090698E0,1.268195987E0,4.675575256E0
1.556932796E0,8.562117577E0,1.306481123E0,4.685146809E0
1.574961055E0,8.548358917E0,1.325623751E0,4.694717884E0
1.592997371E0,8.366504669E0,1.252044439E0,4.676173687E0
1.611018062E0,8.514261246E0,1.278365493E0,4.689932346E0
1.629046688E0,8.547760963E0,1.283151150E0,4.670789719E0
1.647075435E0,8.580661774E0,1.296909928E0,4.618147850E0
1.665105708E0,8.590232849E0,1.301695466E0,4.570291042E0
1.683133967E0,8.590232849E0,1.301695466E0,4.570291042E0
1.701164058E0,8.585447311E0,1.296909928E0,4.622933388E0
1.719191707E0,8.590232849E0,1.268195987E0,4.622933388E0
1.737221248E0,8.608778000E0,1.277767301E0,4.584648132E0
1.755248653E0,8.623134613E0,1.287338614E0,4.488935471E0
1.773277583E0,8.604590416E0,1.296909928E0,4.517649174E0
1.791306941E0,8.519046783E0,1.293320656E0,4.566103935E0
1.809336726E0,8.533403397E0,1.307677627E0,4.518247128E0
1.827364926E0,8.595617294E0,1.335195065E0,4.536791801E0
1.845394588E0,8.618947029E0,1.325623751E0,4.517649174E0
1.863422420E0,8.585447311E0,1.316052437E0,4.532006264E0
1.881452266E0,8.604590416E0,1.311266780E0,4.488935471E0
1.899479976E0,8.623732567E0,1.320838094E0,4.455435753E0
1.917508846E0,8.618947029E0,1.344766378E0,4.465006828E0
1.935537898E0,8.638090134E0,1.353739381E0,4.455435753E0
1.953567806E0,8.638090134E0,1.344766378E0,4.426722050E0
1.971596553E0,8.618947029E0,1.335195065E0,4.436293125E0
1.989625728E0,8.666205406E0,1.339382529E0,4.417150497E0
2.007654170E0,8.694919586E0,1.333998680E0,4.450650215E0
2.025683223E0,8.618349075E0,1.320838094E0,4.432105541E0
2.043710750E0,8.627920151E0,1.320838094E0,4.408177376E0
2.061739803E0,8.661419868E0,1.334596872E0,4.412364960E0
2.079768550E0,8.661419868E0,1.348953724E0,4.412364960E0
2.097797421E0,8.662017822E0,1.368096352E0,4.436293125E0
2.115821773E0,8.547760963E0,1.365105271E0,4.417150497E0
2.133856319E0,8.671588898E0,1.368096352E0,4.398007870E0
2.151884334E0,8.713463783E0,1.338784218E0,4.388436794E0
2.169915340E0,8.661419868E0,1.310668588E0,4.426722050E0
2.187941768E0,8.660821915E0,1.306481123E0,4.345963955E0
2.205970943E0,8.642875671E0,1.383051515E0,4.307080746E0
2.223999629E0,8.699705124E0,1.401595831E0,4.297509670E0
2.242029903E0,8.727820396E0,1.367498159E0,4.331008911E0
2.260057857E0,8.742177963E0,1.357926846E0,4.335794449E0
2.278087337E0,8.713463783E0,1.353739381E0,4.316651821E0
2.296115535E0,8.661419868E0,1.349551916E0,4.326223373E0
2.314141597E0,8.638090134E0,1.363908887E0,4.350151539E0
2.332158138E0,8.714061737E0,1.387238979E0,4.307080746E0
2.350202083E0,8.681160927E0,1.435095429E0,4.321437836E0
2.368230525E0,8.581260681E0,1.408176184E0,4.278964996E0
2.386264461E0,8.857032776E0,1.408774376E0,4.330410957E0
2.404288570E0,8.590831757E0,1.393221021E0,4.307679176E0
2.422318416E0,8.675776482E0,1.363908887E0,4.226323128E0
2.440345943E0,8.746963501E0,1.362712502E0,4.221537113E0
2.458375972E0,8.728418350E0,1.401595831E0,4.216153622E0
2.476403255E0,8.751749039E0,1.415354609E0,4.206582069E0
2.494432491E0,8.785248756E0,1.414756417E0,4.177868366E0
2.512461665E0,8.751749039E0,1.401595831E0,4.168296814E0
2.530491389E0,8.680562019E0,1.392622828E0,4.225724697E0
2.548518612E0,8.714061737E0,1.392024517E0,4.244867325E0
2.566540157E0,8.785248756E0,1.400399446E0,4.220939159E0
2.584561885E0,8.770891190E0,1.410568953E0,4.177868366E0
2.602601924E0,8.694919586E0,1.426122308E0,4.144368649E0
2.620615780E0,8.699705124E0,1.421336651E0,4.130609989E0
2.638667233E0,8.737391472E0,1.396810174E0,4.144967079E0
2.656692745E0,8.742177963E0,1.392024517E0,4.168296814E0
2.674727718E0,8.746963501E0,1.396810174E0,4.177868366E0
2.692750545E0,8.737990379E0,1.420738459E0,4.182653904E0
2.710779781E0,8.723632812E0,1.415952802E0,4.173082829E0
2.728807979E0,8.737391472E0,1.396810174E0,4.168895245E0
2.746838496E0,8.799007416E0,1.400997639E0,4.115654945E0
2.764865840E0,8.765507698E0,1.396211982E0,4.121038914E0
2.782894588E0,8.690134048E0,1.421336651E0,4.192225456E0
2.800919429E0,8.671588898E0,1.445264935E0,4.197010994E0
2.818938045E0,8.723632812E0,1.430309772E0,4.220939159E0
2.836981685E0,8.757132530E0,1.429711580E0,4.244867325E0
2.855007198E0,8.766105652E0,1.415354609E0,4.220939159E0
2.873028377E0,8.709276199E0,1.387238979E0,4.268795490E0
2.891069148E0,8.709874153E0,1.430309772E0,4.268795490E0
2.909096919E0,8.733204842E0,1.434497118E0,4.244867325E0
2.927129756E0,8.709276199E0,1.411167145E0,4.249652863E0
2.945154842E0,8.757132530E0,1.415354609E0,4.268795490E0
2.963184627E0,8.795417786E0,1.438684583E0,4.220939159E0
2.981212703E0,8.861818314E0,1.452443361E0,4.149154663E0
2.999242427E0,8.703892708E0,1.392622828E0,4.164109707E0
3.017269954E0,8.666205406E0,1.383051515E0,4.297509670E0
3.035299556E0,8.690134048E0,1.406381488E0,4.220939159E0
3.053327327E0,8.648259163E0,1.454237938E0,4.331008911E0
3.071356502E0,8.687142372E0,1.511067510E0,4.363910198E0
3.089385616E0,8.696115494E0,1.473380566E0,4.259224415E0
3.107415401E0,8.676374435E0,1.459023595E0,4.216153622E0
3.125443721E0,8.755936623E0,1.406381488E0,4.063611031E0
3.143473201E0,8.737391472E0,1.420738459E0,4.034897327E0
3.161501094E0,8.772088051E0,1.544566989E0,4.053441525E0
3.179527400E0,8.777471542E0,1.582253933E0,4.148556232E0
3.197544124E0,8.819944382E0,1.519442320E0,4.249054909E0
3.215588191E0,8.937192917E0,1.408176184E0,4.225126743E0
3.233616451E0,8.841479301E0,1.381256819E0,4.106083870E0
3.251649837E0,8.737391472E0,1.411167145E0,4.092324734E0
3.269674007E0,8.756534576E0,1.430309772E0,4.077968121E0
3.287700557E0,8.804390907E0,1.444068432E0,4.034298897E0
3.305717647E0,8.800203323E0,1.487139225E0,4.053441525E0
3.323762141E0,8.800203323E0,1.515853167E0,4.058227062E0
3.341789607E0,8.809774399E0,1.505683661E0,4.106083870E0
3.359822261E0,8.719446182E0,1.468594909E0,4.163511276E0
3.377847469E0,8.748159409E0,1.477568030E0,4.149154663E0
3.395877498E0,8.785846710E0,1.496710539E0,4.101297855E0
3.413905574E0,8.861818314E0,1.495514154E0,4.072584152E0
3.431935054E0,8.847461700E0,1.486541033E0,4.053441525E0
3.449958919E0,8.710473061E0,1.526022673E0,4.125226021E0
3.467977840E0,8.748159409E0,1.525424480E0,4.072584152E0
3.486020626E0,8.809176445E0,1.501496196E0,3.967299938E0
3.504049922E0,8.737990379E0,1.478166223E0,4.125226021E0
3.522082271E0,8.819346428E0,1.543968797E0,4.005585194E0
3.540108699E0,8.857631683E0,1.562513232E0,4.028914928E0
3.558136409E0,8.819346428E0,1.520040631E0,4.101297855E0
3.576165889E0,8.852845192E0,1.514656782E0,4.091726780E0
3.594194087E0,8.824131966E0,1.534397483E0,4.039084435E0
3.612223934E0,8.805587769E0,1.563111424E0,4.019941807E0
3.630251583E0,8.786444664E0,1.572682738E0,4.058227062E0
3.648280574E0,8.791230202E0,1.563111424E0,4.043870449E0
3.666309566E0,8.729017258E0,1.511665702E0,4.077369690E0
3.684339168E0,8.729017258E0,1.497308731E0,4.086941242E0
3.702367488E0,8.705088615E0,1.497308731E0,4.134797573E0
3.720396968E0,8.767302513E0,1.525424480E0,4.144368649E0
3.738424861E0,8.838488579E0,1.519442320E0,4.091726780E0
3.756454829E0,8.861818314E0,1.495514154E0,4.063013077E0
3.774483211E0,8.804988861E0,1.491924882E0,4.034298897E0
3.792511592E0,8.766703606E0,1.487737536E0,3.991228104E0
3.810540645E0,8.757132530E0,1.492523074E0,4.005585194E0
3.828570125E0,8.771489143E0,1.472782373E0,4.101297855E0
3.846598262E0,8.720044136E0,1.506880045E0,4.187439442E0
3.864628230E0,8.691329956E0,1.506880045E0,4.144368649E0
3.882656123E0,8.748159409E0,1.534995675E0,4.110869408E0
3.900686092E0,8.871390343E0,1.514656782E0,4.015156269E0
3.918713130E0,8.866005898E0,1.447657704E0,4.072584152E0
3.936742427E0,8.785248756E0,1.429711580E0,4.153940201E0
3.954771236E0,8.728418350E0,1.425524116E0,4.206582069E0
3.972801387E0,8.662615776E0,1.445264935E0,4.283152580E0
3.990829463E0,8.662615776E0,1.464407444E0,4.283152580E0
4.008859126E0,8.752944946E0,1.472782373E0,4.258625984E0
4.026886531E0,8.805587769E0,1.495514154E0,4.215555191E0
4.044916805E0,8.686544418E0,1.492523074E0,4.225724697E0
4.062944332E0,8.639286041E0,1.497906923E0,4.225724697E0
4.080969722E0,8.696115494E0,1.487737536E0,4.230510235E0
4.098987117E0,8.752944946E0,1.463211060E0,4.235296249E0
4.117032283E0,8.700303078E0,1.463809252E0,4.244867325E0
4.135062923E0,8.653642654E0,1.512263894E0,4.240081787E0
4.153103999E0,8.696115494E0,1.521237016E0,4.244867325E0
4.171117976E0,8.743373871E0,1.476969719E0,4.273581028E0
4.189147823E0,8.724231720E0,1.439282775E0,4.283152580E0
4.207173031E0,8.728418350E0,1.449452281E0,4.158725739E0
4.225204402E0,8.742775917E0,1.463211060E0,4.163511276E0
4.243233577E0,8.781061172E0,1.462612867E0,4.173082829E0
4.261263667E0,8.672187805E0,1.497308731E0,4.235296249E0
4.279291316E0,8.729017258E0,1.482353687E0,4.192225456E0
4.297320796E0,8.743373871E0,1.467996716E0,4.220939159E0
4.315348567E0,8.724231720E0,1.506880045E0,4.144368649E0
4.333378780E0,8.752944946E0,1.491924882E0,4.197010994E0
4.351406551E0,8.724231720E0,1.482353687E0,4.220939159E0
4.369435359E0,8.720044136E0,1.501496196E0,4.211368084E0
4.387464168E0,8.729615211E0,1.520638824E0,4.187439442E0
4.405494197E0,8.682356834E0,1.526022673E0,4.235296249E0
4.423522579E0,8.635098457E0,1.540977836E0,4.225724697E0
4.441552120E0,8.672785759E0,1.559522152E0,4.153940201E0
4.459579952E0,8.763114929E0,1.530210137E0,4.167698860E0
4.477609798E0,8.833703041E0,1.509871125E0,4.110270977E0
4.495637020E0,8.852247238E0,1.457229018E0,4.210769653E0
4.513666499E0,8.790632248E0,1.463211060E0,4.134797573E0
4.531695064E0,8.695517540E0,1.464407444E0,4.149154663E0
4.549725215E0,8.700303078E0,1.502692580E0,4.086941242E0
4.567753292E0,8.776873589E0,1.558923960E0,4.067200184E0
4.585779232E0,8.876773834E0,1.552941918E0,4.052843571E0
4.603794490E0,8.838488579E0,1.510469317E0,4.063013077E0
4.621840694E0,8.843274117E0,1.514656782E0,4.086941242E0
4.639868343E0,8.733802795E0,1.491924882E0,4.153940201E0
4.657901363E0,8.733802795E0,1.491924882E0,4.158725739E0
4.675926448E0,8.771489143E0,1.487139225E0,4.125226021E0
4.693956539E0,8.644071579E0,1.517049551E0,4.206582069E0
4.711984249E0,8.677571297E0,1.564307809E0,4.205984116E0
4.730013973E0,8.715856552E0,1.597209096E0,4.148556232E0
4.748041683E0,8.763114929E0,1.582253933E0,4.119842529E0
4.766071590E0,8.739186287E0,1.568495274E0,4.077369690E0
4.784099178E0,8.762516975E0,1.549352646E0,4.024727821E0
4.802128475E0,8.805587769E0,1.558325768E0,4.063013077E0
4.820157344E0,8.834300995E0,1.572682738E0,4.019941807E0
4.838187373E0,8.881559372E0,1.567298889E0,4.000201225E0
4.856215388E0,8.886344910E0,1.562513232E0,3.981656790E0
4.874244991E0,8.891130447E0,1.572084427E0,3.957728624E0
4.892273128E0,8.720044136E0,1.560120344E0,3.981656790E0
4.910303340E0,8.776873589E0,1.578066587E0,4.010370731E0
4.928330623E0,8.829515457E0,1.596610904E0,3.995415688E0
4.946359371E0,8.829515457E0,1.610967875E0,3.985844374E0
4.964388179E0,8.820542336E0,1.634896040E0,3.961916208E0
4.982418453E0,8.872586250E0,1.634297848E0,3.942773581E0
5.000446345E0,8.806185722E0,1.625324726E0,4.024129391E0
5.018475887E0,8.715258598E0,1.569093466E0,4.043870449E0
5.036505916E0,8.758329391E0,1.568495274E0,4.063013077E0
5.054542842E0,8.682356834E0,1.583450437E0,4.163511276E0
5.072561580E0,8.687741280E0,1.621735573E0,4.100699902E0
5.090590511E0,8.897112846E0,1.681556106E0,3.952344894E0
5.108617427E0,8.977870941E0,1.694716692E0,3.932604074E0
5.126649226E0,8.991629601E0,1.675574064E0,3.942175388E0
5.144677547E0,8.863015175E0,1.624726534E0,3.952344894E0
5.162706783E0,8.605786324E0,1.570888042E0,4.010370731E0
5.180734920E0,8.682356834E0,1.627119422E0,3.962514400E0
5.198764705E0,8.768498421E0,1.692921996E0,3.885345697E0
5.216795284E0,8.721240044E0,1.717448473E0,3.909274101E0
5.234832271E0,8.730812073E0,1.683350682E0,4.014558315E0
5.252850154E0,8.749954224E0,1.697707653E0,3.966701746E0
5.270876827E0,8.792427063E0,1.731207132E0,3.837489367E0
5.288892330E0,8.864211082E0,1.753939033E0,3.842274904E0
5.306937862E0,8.931210518E0,1.738385677E0,3.951746702E0
5.324965938E0,8.925827026E0,1.724028707E0,3.927818298E0
5.342999202E0,8.925827026E0,1.710269928E0,3.870988846E0
5.361023250E0,8.816953659E0,1.735394597E0,3.894917011E0
5.379052303E0,8.849854469E0,1.764108539E0,3.780061483E0
5.397081294E0,8.997013092E0,1.776670814E0,3.698705673E0
5.415111080E0,8.968897820E0,1.776670814E0,3.732205153E0
5.433139033E0,8.721838951E0,1.765304923E0,3.870988846E0
5.451169002E0,8.740383148E0,1.736590981E0,3.804588079E0
5.469196834E0,8.815756798E0,1.702493310E0,3.808775425E0
5.487226741E0,8.882157326E0,1.677368641E0,3.803989887E0
5.505254939E0,8.905488014E0,1.648654819E0,3.732803345E0
5.523285457E0,8.862417221E0,1.634896040E0,3.771088600E0
5.541312312E0,8.877371788E0,1.648654819E0,3.885345697E0
5.559342037E0,8.882756233E0,1.676770449E0,3.947559118E0
5.577369686E0,8.863613129E0,1.691725612E0,3.880560160E0
5.595400142E0,8.839685440E0,1.697109461E0,3.813561201E0
5.613428523E0,8.844470978E0,1.692323804E0,3.861417532E0
5.631457576E0,8.844470978E0,1.667797327E0,3.942773581E0
5.649485225E0,8.825327873E0,1.668395638E0,3.933202267E0
5.667514522E0,8.778069496E0,1.697707653E0,3.890131474E0
5.685543269E0,8.868398666E0,1.701296926E0,3.866203070E0
5.703573055E0,8.953942299E0,1.709671736E0,3.832703590E0
5.721602535E0,8.825926781E0,1.701895118E0,3.861417532E0
5.739632991E0,8.764310837E0,1.712064624E0,3.870988846E0
5.757643672E0,8.764310837E0,1.716850281E0,3.890131474E0
5.775687556E0,8.858827591E0,1.701296926E0,3.890131474E0
5.793709773E0,8.939585686E0,1.710269928E0,3.861417532E0
5.811749202E0,8.858827591E0,1.706082582E0,3.861417532E0
5.829774226E0,8.830712318E0,1.725823283E0,3.808775425E0
5.847805538E0,8.830113411E0,1.692323804E0,3.856631994E0
5.865832393E0,8.854042053E0,1.668395638E0,3.870988846E0
5.883862178E0,8.834898949E0,1.668395638E0,3.842274904E0
5.901889949E0,8.806185722E0,1.683350682E0,3.837489367E0
5.919919856E0,8.839685440E0,1.687538147E0,3.823132277E0
5.937947750E0,8.877371788E0,1.682154298E0,3.803989887E0
5.955976314E0,8.895915985E0,1.658226132E0,3.775874138E0
5.974001400E0,8.881559372E0,1.615753531E0,3.756731510E0
5.992020015E0,8.857631683E0,1.610967875E0,3.775874138E0
6.010063533E0,8.853444099E0,1.677966833E0,3.799802303E0
6.028089168E0,8.872586250E0,1.687538147E0,3.775275946E0
6.046109921E0,8.839685440E0,1.668395638E0,3.861417532E0
6.064151119E0,8.801400185E0,1.621137381E0,3.919443607E0
6.082178401E0,8.848059654E0,1.601396561E0,3.833301783E0
6.100211482E0,8.815158844E0,1.616351724E0,3.814159393E0
6.118236019E0,8.720642090E0,1.651047587E0,3.833301783E0
6.136266170E0,8.705686569E0,1.627119422E0,3.823730469E0
6.154294246E0,8.843872070E0,1.610967875E0,3.914657831E0
6.172324275E0,8.534600258E0,1.619940877E0,3.790829182E0
6.190351680E0,8.612366676E0,1.771885157E0,3.771088600E0
6.208378047E0,8.693722725E0,1.847259045E0,3.741776466E0
6.226393795E0,8.808578491E0,1.820937991E0,3.975674868E0
6.244438594E0,8.775676727E0,1.782054663E0,4.247858524E0
6.262463497E0,8.821140289E0,1.686939955E0,4.052245140E0
6.280485774E0,8.809774399E0,1.626521230E0,3.671188116E0
6.298524959E0,8.504690170E0,1.540379524E0,3.614956856E0
6.316555049E0,8.414958954E0,1.589432478E0,3.528815269E0
6.334586910E0,8.636893272E0,1.572682738E0,3.299104214E0
6.352609188E0,8.964710236E0,1.530210137E0,3.360719442E0
6.370625484E0,8.883354187E0,1.493121386E0,3.303889751E0
6.388670284E0,8.734998703E0,1.463211060E0,3.041875839E0
6.406698848E0,8.880961418E0,1.399801254E0,2.864806890E0
6.424732234E0,9.003593445E0,1.379462242E0,2.764308453E0
6.442755855E0,9.087940216E0,1.302293777E0,2.583052158E0
6.460786312E0,9.071788788E0,1.217348576E0,2.402393818E0
6.478813655E0,9.265607834E0,1.158126116E0,2.354537487E0
6.496839839E0,9.382257462E0,1.061815023E0,2.077568293E0
6.514855892E0,9.476176262E0,1.057029366E0,1.700100541E0
6.532900447E0,9.580862045E0,1.070189953E0,1.671386600E0
6.550929317E0,9.224929810E0,1.109073281E0,1.561915040E0
6.568963069E0,8.840881348E0,9.008977413E-1,1.182054400E0
6.586987117E0,9.270393372E0,7.872386575E-1,6.610172391E-1
6.605017024E0,1.052243805E1,7.435696125E-1,1.621137410E-1
6.677129960E0,1.194197941E1,1.962114573E-1,-2.646461725E0
6.695159420E0,1.161236858E1,-7.178468257E-2,-3.742374659E0
6.713190731E0,1.172124195E1,-2.805584669E-1,-4.476971149E0
6.731218074E0,1.160937691E1,-1.053440213E0,-5.327619553E0
6.749247859E0,1.137547874E1,-1.348355532E0,-6.094519138E0
6.767275813E0,1.136830044E1,-9.589236975E-1,-5.499304771E0
6.785306209E0,1.120917797E1,-8.775677085E-1,-5.036293507E0
6.803333126E0,1.038425159E1,-9.110672474E-1,-5.860022545E0
6.821362605E0,1.034836006E1,-9.900303483E-1,-6.265007973E0
6.839390987E0,1.028614616E1,-1.245464206E0,-5.380859852E0
6.857421016E0,1.010907745E1,-1.536790371E0,-4.773082733E0
6.875449275E0,1.035793114E1,-1.700698733E0,-5.111667156E0
6.893479060E0,1.030409241E1,-1.712662816E0,-5.593821049E0
6.911506709E0,1.034836006E1,-1.521835208E0,-5.733202934E0
6.929536739E0,1.034177971E1,-1.036690354E0,-5.248058319E0
6.947564449E0,1.018983555E1,-7.992027402E-1,-4.503890514E0
6.965593440E0,9.812367439E0,-7.196413875E-1,-3.959523201E0
6.983622615E0,9.534799576E0,-5.497509837E-1,-3.882952929E0
7.001652156E0,1.000498962E1,-3.870390654E-1,-4.390829563E0
7.019680599E0,1.031306553E1,-3.320041299E-1,-4.874179840E0
7.037710140E0,1.022812080E1,-5.778666735E-1,-5.221138954E0
7.055737605E0,8.970691681E0,-1.339980721E0,-4.866403103E0
7.073767757E0,8.734400749E0,-1.395613790E0,-4.402793884E0
7.091795833E0,8.948558807E0,-1.370489120E0,-4.231108665E0
7.109824336E0,8.955139160E0,-1.256231904E0,-4.226921082E0
7.127853389E0,9.108877182E0,-1.105484009E0,-4.266402721E0
7.145883235E0,9.454042435E0,-7.704889178E-1,-4.526622295E0
7.163911495E0,9.300901413E0,-4.965106845E-1,-4.436293125E0
7.181940975E0,9.041280746E0,-3.457628787E-1,-4.369892120E0
7.199968807E0,8.976076126E0,-1.866401732E-1,-4.580460548E0
7.217998775E0,9.056833267E0,-2.165504545E-1,-4.441677094E0
7.236026119E0,9.019146919E0,-5.742774159E-2,-3.564109325E0
7.254055232E0,9.090931892E0,-6.879365444E-2,-3.254238844E0
7.272084224E0,8.730812073E0,-2.243271172E-1,-3.810570002E0
7.290114253E0,8.830712318E0,-3.128615618E-1,-3.448057413E0
7.308142941E0,8.955139160E0,-3.445664644E-1,-3.084946632E0
7.326171993E0,8.571090698E0,-3.595215976E-1,-2.836092949E0
7.344200069E0,8.096115112E0,-3.870390654E-1,-2.624926329E0
7.362229671E0,7.928617954E0,-4.606183469E-1,-2.805584431E0
7.380257381E0,7.639086246E0,-4.528416991E-1,-2.599203587E0
7.398286434E0,7.139584541E0,-5.617151260E-1,-2.363510609E0
7.416315425E0,7.443472862E0,-2.949153781E-1,-1.969292998E0
7.434345027E0,8.073383331E0,-3.589234129E-2,-2.034497499E0
7.452373347E0,8.304290771E0,1.076770201E-1,-1.763510346E0
7.470402889E0,8.394619942E0,3.134597540E-1,-9.385846853E-1
7.488431087E0,8.445467949E0,4.642075896E-1,-6.197410822E-1
7.506460933E0,8.262416840E0,3.774677813E-1,-1.005583763E0
7.524488216E0,7.856832981E0,3.320041299E-1,-1.362114310E0
7.542517208E0,7.374679565E0,1.621137410E-1,-1.460818172E0
7.560543697E0,7.350750923E0,1.381855011E-1,-1.374676585E0
7.578576228E0,7.438687325E0,-3.888336942E-2,-1.517049551E0
7.596603938E0,7.513463020E0,2.219343036E-1,-1.408774376E0
7.614634457E0,8.032705307E0,4.552344978E-1,-1.826321840E0
7.632661678E0,9.976874352E0,9.349954724E-1,-1.818545222E0
7.650691768E0,1.102373409E1,1.240678549E0,6.693921089E-1
7.668719234E0,1.044586754E1,1.020538807E0,4.187439680E-1
7.686748225E0,8.690134048E0,6.610172391E-1,-4.917250574E-1
7.704777644E0,8.261817932E0,7.010970116E-1,-8.590233326E-1
7.722807246E0,8.331210136E0,8.715856671E-1,-7.118647099E-1
7.740835568E0,8.456833839E0,1.056431174E0,-7.651050687E-1
7.758865109E0,8.584251404E0,1.286740422E0,-4.085744619E-1
7.776890560E0,8.716454506E0,1.324427366E0,-7.621139884E-1
7.794907527E0,8.687142372E0,1.229312658E0,-6.855437160E-1
7.812946651E0,8.794819832E0,1.470389485E0,-4.719842672E-1
7.830963497E0,9.013164520E0,1.424327731E0,-4.390829504E-1
7.849011836E0,9.279366493E0,1.478166223E0,-4.875376225E-1
7.867037776E0,9.142376900E0,1.465005636E0,-2.530409992E-1
7.885069942E0,9.342776299E0,1.524227977E0,-3.254238665E-1
7.903096309E0,9.608379364E0,1.564906001E0,-5.413761139E-1
7.921122005E0,8.973683357E0,1.228714466E0,-2.566302419E-1
7.939146114E0,9.148359299E0,1.390828133E0,4.247260094E-1
7.957181148E0,9.843474388E0,1.525424480E0,2.362912297E-1
7.975210445E0,1.013001442E1,1.409372568E0,-2.985046208E-1
7.993240962E0,1.069651508E1,1.554736495E0,-4.576273263E-1
8.011270687E0,1.096929741E1,1.727617979E0,-5.312066078E-1
8.029303462E0,1.079521942E1,1.834696770E0,-4.354937077E-1
8.047326717E0,9.430712700E0,1.414158225E0,-4.923232496E-1
8.065355465E0,8.409575462E0,1.143171072E0,-9.086744189E-1
8.083386775E0,8.280363083E0,1.078564763E0,-9.511470199E-1
8.101412654E0,8.599804878E0,1.034297585E0,-5.365904570E-1
8.119441402E0,9.309874535E0,1.171884894E0,-3.050848842E-1
8.137469906E0,9.477372169E0,1.269990563E0,-2.913261652E-1
8.155500240E0,9.742975235E0,1.281356573E0,-5.258227587E-1
8.173528560E0,9.897911072E0,1.517647743E0,-4.701896608E-1
8.191558284E0,1.023410225E1,1.784447432E0,-3.194418252E-1
8.209585689E0,1.058584690E1,1.832303882E0,-3.822534084E-1
8.227615535E0,1.043988514E1,1.649851203E0,-7.441678643E-1
8.245640010E0,9.994221687E0,1.317248821E0,-7.842476368E-1
8.263659480E0,9.573683739E0,9.870393276E-1,-2.189432681E-1
8.281701228E0,9.235696793E0,7.698906660E-1,2.985046208E-1
8.299727169E0,8.938388824E0,6.556333899E-1,-1.495514158E-2
8.317747127E0,9.093922615E0,6.263213158E-1,-3.116651475E-1
8.335788631E0,9.511469841E0,9.152546525E-1,-7.956135273E-2
8.353816890E0,9.767501831E0,1.231705427E0,-1.010967568E-1
8.371851009E0,9.827920914E0,1.517049551E0,-7.178467698E-3
8.389874263E0,1.001456070E1,1.633699656E0,-5.563312769E-2
8.407903987E0,1.003310490E1,1.596012712E0,-1.226321608E-1
8.425932552E0,1.007019424E1,1.523629785E0,-6.939185411E-2
8.443958614E0,9.883553505E0,1.392024517E0,2.213360928E-2
8.461975520E0,9.621540070E0,1.295115232E0,8.494520187E-2
8.480019771E0,9.560523033E0,1.304686546E0,2.763710022E-1
8.498047847E0,9.499505997E0,1.338784218E0,3.858426511E-1
8.516081234E0,9.513862610E0,1.386640668E0,2.949153781E-1
8.534105709E0,9.622138023E0,1.386042476E0,-5.383851007E-2
8.552134090E0,9.713663101E0,1.485344648E0,-5.443671346E-2
8.570163570E0,9.682557106E0,1.550549030E0,4.660021961E-1
8.588193538E0,9.640084267E0,1.512263894E0,6.903293133E-1
8.606221431E0,9.662218094E0,1.416550994E0,5.952146053E-1
8.624251216E0,9.780064583E0,1.344168067E0,4.331009090E-1
8.642278621E0,1.007497978E1,1.417149186E0,2.650051117E-1
8.660309078E0,1.008395290E1,1.378864050E0,2.506481707E-1
8.678335933E0,9.808179855E0,1.315454245E0,3.852444589E-1
8.696365535E0,9.607781410E0,1.207777262E0,5.676971674E-1
8.714393917E0,9.710672379E0,1.125224829E0,4.965106845E-1
8.732423946E0,9.661619186E0,1.007378340E0,3.870390654E-1
8.750452205E0,9.509077072E0,9.373882413E-1,4.450650215E-1
8.768482112E0,9.547960281E0,9.696913958E-1,5.832505226E-1
8.786510127E0,9.765109062E0,8.428717852E-1,6.693921089E-1
8.804539668E0,9.984052658E0,8.297112584E-1,7.974081635E-1
8.822567379E0,9.959526062E0,8.309076428E-1,5.688936114E-1
8.840596370E0,9.750752449E0,9.104689956E-1,4.444667995E-1
8.858626094E0,9.494720459E0,9.134600163E-1,4.737788737E-1
8.876655330E0,9.769894600E0,9.002995491E-1,4.588237405E-1
8.894683467E0,9.696315765E0,1.009771109E0,8.787640929E-1
8.912712764E0,9.845269203E0,1.078564763E0,1.049850941E0
8.930740779E0,9.754341125E0,1.032503009E0,9.978070259E-1
8.948770748E0,9.942177773E0,1.022333503E0,4.342973232E-1
8.966798091E0,9.940981865E0,1.013958573E0,7.597211748E-2
8.984827205E0,9.852447510E0,1.071386337E0,3.529413342E-1
9.002856258E0,9.720842361E0,1.109671474E0,7.926225066E-1
9.020886287E0,9.673583984E0,1.080957651E0,9.834501147E-1
9.038914180E0,9.579665184E0,1.182652593E0,8.925228715E-1
9.056943904E0,9.482157707E0,1.080359459E0,5.353940725E-1
9.074971675E0,9.897911072E0,1.232303619E0,6.197410822E-1
9.093001521E0,9.507881165E0,1.271187067E0,4.390829504E-1
9.111029109E0,9.339784622E0,1.048654556E0,5.928218365E-1
9.129058406E0,9.499505997E0,8.895317912E-1,5.647061467E-1
9.147087215E0,9.816555023E0,8.380861282E-1,4.875376225E-1
9.165117061E0,9.781260490E0,9.517452121E-1,7.878368497E-1
9.183145320E0,9.945767403E0,1.134197950E0,1.168893814E0
9.201172054E0,1.005045319E1,1.152144074E0,1.087537885E0
9.219191463E0,9.745966911E0,1.112662554E0,1.164706469E0
9.237232417E0,9.561718941E0,1.201795220E0,1.092921734E0
9.255260005E0,9.618548393E0,1.215553880E0,1.006780148E0
9.273291927E0,9.704689980E0,1.247258782E0,1.125823021E0
9.291318233E0,9.504889488E0,1.177866936E0,1.255633712E0
9.309348262E0,9.395418167E0,1.194018483E0,1.198804140E0
9.327376461E0,9.378069878E0,1.284347534E0,1.284347534E0
9.345403866E0,9.581459999E0,1.272383451E0,1.164108157E0
9.363423885E0,9.629914284E0,1.319641709E0,1.149751306E0
9.381463619E0,9.719047546E0,1.247258782E0,1.121037364E0
9.399490840E0,9.647262573E0,1.180858016E0,1.135992527E0
9.417522579E0,9.518648148E0,1.125224829E0,1.246062398E0
9.435549495E0,9.591031075E0,1.228714466E0,1.312463164E0
9.453579707E0,9.891330719E0,1.310668588E0,1.311266780E0
9.471607234E0,9.820143700E0,1.340578914E0,1.259222865E0
9.489636653E0,9.501898766E0,1.296909928E0,1.288534999E0
9.507665218E0,9.568299294E0,1.315454245E0,1.278963685E0
9.525690914E0,9.714859962E0,1.323829174E0,1.068395257E0
9.543707515E0,9.756733894E0,1.280758262E0,9.110672474E-1
9.561751705E0,9.649057388E0,1.353141189E0,1.101894855E0
9.579780513E0,9.539586067E0,1.335195065E0,1.164108157E0
9.597813655E0,9.571888924E0,1.297508121E0,9.828519225E-1
9.615838374E0,9.627521515E0,1.225723386E0,7.920243144E-1
9.633867793E0,9.699306488E0,1.253240824E0,8.249256015E-1
9.651895442E0,9.638887405E0,1.301097274E0,1.054038405E0
9.669925777E0,9.605986595E0,1.305882931E0,1.097109199E0
9.687953243E0,9.652048111E0,1.234696507E0,9.158528447E-1
9.705982784E0,9.698708534E0,1.181456208E0,8.350951076E-1
9.724011043E0,9.722636223E0,1.229312658E0,7.298108935E-1
9.742041438E0,9.632308006E0,1.269392371E0,5.868397355E-1
9.760069575E0,9.603593826E0,1.250249863E0,7.010970116E-1
9.778098934E0,9.750752449E0,1.200598717E0,7.298108935E-1
9.796121394E0,9.679565430E0,1.225125194E0,7.872386575E-1
9.814136165E0,9.613762856E0,1.268794179E0,7.633104324E-1
9.832184078E0,9.660423279E0,1.273579836E0,5.718846321E-1
9.850213252E0,9.703494072E0,1.282552958E0,5.766702294E-1
9.868247310E0,9.683753014E0,1.235294700E0,5.964110494E-1
9.886272029E0,9.763314247E0,1.162911773E0,4.384847581E-1
9.904300105E0,9.744770050E0,1.182054400E0,5.437689424E-1
9.922329585E0,9.655039787E0,1.202393413E0,5.676971674E-1
9.940357539E0,9.640682220E0,1.188036442E0,5.724828243E-1
9.958387813E0,9.726823807E0,1.215553880E0,6.293123364E-1
9.976415401E0,9.735796928E0,1.196411371E0,5.341976285E-1
9.994444575E0,9.725627899E0,1.173081279E0,4.007977843E-1
1.001247363E1,9.768698692E0,1.182054400E0,4.671986103E-1
1.003049859E1,9.754341125E0,1.196411371E0,5.054838061E-1
1.004851379E1,9.735198975E0,1.163509965E0,4.342973232E-1
1.006656097E1,9.715457916E0,1.130608678E0,3.146561682E-1
1.008458880E1,9.605986595E0,1.160519004E0,3.391826153E-1
1.010262335E1,9.630513191E0,1.198804140E0,2.907279432E-1
1.012064618E1,9.710672379E0,1.178465128E0,2.620140910E-1
1.013867504E1,9.748359680E0,1.130608678E0,2.859423161E-1
1.015670379E1,9.753145218E0,1.130010486E0,3.433700502E-1
1.017473394E1,9.720842361E0,1.183250785E0,3.481557071E-1
1.019276245E1,9.701699257E0,1.226321578E0,2.715853751E-1
1.021079235E1,9.716055870E0,1.255035520E0,2.189432681E-1
1.022881964E1,9.744172096E0,1.241276741E0,9.930214286E-2
1.024684558E1,9.692128181E0,1.261017561E0,7.118647546E-2
1.026486169E1,9.691530228E0,1.223330617E0,-4.366901144E-2
1.028290600E1,9.638289452E0,1.180858016E0,-9.092725813E-2
1.030093487E1,9.685547829E0,1.141974568E0,-3.349951655E-2
1.031896868E1,9.680762291E0,1.118046403E0,-4.307080805E-2
1.033699255E1,9.713065147E0,1.079761267E0,-6.221338734E-2
1.035502081E1,9.775279045E0,1.079162955E0,-6.221338734E-2
1.037305041E1,9.818349838E0,1.116850019E0,-1.196411327E-1
1.039108068E1,9.761520386E0,1.150947690E0,-1.866401732E-1
1.040910870E1,9.780662537E0,1.194018483E0,-2.249253243E-1
1.042713732E1,9.770493507E0,1.156331539E0,-3.535395563E-1
1.044516613E1,9.770493507E0,1.132403374E0,-2.913261652E-1
1.046319628E1,9.794421196E0,1.127019525E0,-1.722832322E-1
1.048121905E1,9.740582466E0,1.066002488E0,-3.529413342E-1
1.049923413E1,9.683155060E0,1.038485050E0,-3.481557071E-1
1.051728118E1,9.678369522E0,1.048056364E0,-4.151547253E-1
1.053531128E1,9.678967476E0,1.096511006E0,-5.491527915E-1
1.055334362E1,9.649655342E0,1.058824062E0,-5.533402562E-1
1.057136859E1,9.840482712E0,1.113260746E0,-5.018945336E-1
1.058939740E1,9.851250648E0,1.159920812E0,-3.493520916E-1
1.060742736E1,9.794421196E0,1.204187989E0,-4.444667995E-1
1.062545483E1,9.764511108E0,1.157527924E0,-6.927221417E-1
1.064348468E1,9.721440315E0,1.144367456E0,-8.165507317E-1
1.066151269E1,9.739984512E0,1.095912814E0,-7.064808607E-1
1.067954248E1,9.792028427E0,1.066600680E0,-6.490531564E-1
1.069756958E1,9.755537987E0,1.147956610E0,-5.778666735E-1
1.071559466E1,9.692726135E0,1.082154036E0,-6.442674994E-1
1.073361114E1,9.734601021E0,1.005583763E0,-6.538388133E-1
1.075165814E1,9.757930756E0,9.667003751E-1,-6.490531564E-1
1.076968621E1,9.729216576E0,9.816554785E-1,-6.867401004E-1
1.078771630E1,9.719645500E0,1.001396298E0,-7.872386575E-1
1.080572839E1,9.734601021E0,1.058225870E0,-7.974081635E-1
1.082377374E1,9.763314247E0,1.101296663E0,-8.309076428E-1
1.084180108E1,9.725028992E0,1.092323542E0,-8.404789567E-1
1.085983416E1,9.725028992E0,1.063609719E0,-8.638089895E-1
1.087785888E1,9.739386559E0,1.091725349E0,-8.500502706E-1
1.089588903E1,9.753743172E0,1.101296663E0,-8.883354068E-1
1.091391723E1,9.739386559E0,1.092323542E0,-9.355936646E-1
1.093194452E1,9.710672379E0,1.097109199E0,-9.164510965E-1
1.094996618E1,9.663414001E0,1.112064362E0,-8.446664214E-1
1.096800463E1,9.654440880E0,1.126421213E0,-8.446664214E-1
1.098603204E1,9.720842361E0,1.139581800E0,-8.452646136E-1
1.100406317E1,9.744770050E0,1.134796143E0,-8.356932998E-1
1.102208984E1,9.634700775E0,1.098305583E0,-9.451649189E-1
1.104011987E1,9.668199539E0,1.117448211E0,-9.786644578E-1
1.105814782E1,9.706484795E0,1.125823021E0,-9.308080077E-1
1.107617779E1,9.673583984E0,1.126421213E0,-8.973084688E-1
1.109420562E1,9.659226418E0,1.107278705E0,-8.542376757E-1
1.111223645E1,9.659226418E0,1.126421213E0,-8.356932998E-1
1.113026300E1,9.677771568E0,1.116850019E0,-8.925228715E-1
1.114829235E1,9.762716293E0,1.097109199E0,-9.786644578E-1
1.116631488E1,9.749555588E0,1.110867858E0,-8.356932998E-1
1.118432696E1,9.620343208E0,1.098305583E0,-9.116654396E-1
1.120237902E1,9.683753014E0,1.183250785E0,-8.596215248E-1
1.122040893E1,9.698708534E0,1.216152072E0,-6.975077987E-1
1.123844238E1,9.650253296E0,1.159322619E0,-7.543373108E-1
1.125646661E1,9.668199539E0,1.122233868E0,-9.930213690E-1
1.127449377E1,9.773484230E0,1.153938770E0,-9.218349457E-1
1.129252276E1,9.717252731E0,1.220937729E0,-8.596215248E-1
1.131055169E1,9.655637741E0,1.226919770E0,-9.266205430E-1
1.132858172E1,9.626923561E0,1.208375454E0,-8.979067206E-1
1.134661053E1,9.631709099E0,1.198205948E0,-8.548358679E-1
1.136463977E1,9.664012909E0,1.193420291E0,-1.002592683E0
1.138266626E1,9.620942116E0,1.165902853E0,-1.088734269E0
1.140068884E1,9.659226418E0,1.174875975E0,-1.060020447E0
1.141871295E1,9.753743172E0,1.144965649E0,-1.012163997E0
1.143675103E1,9.735198975E0,1.130010486E0,-8.596215248E-1
1.145477166E1,9.751350403E0,1.200598717E0,-6.017948985E-1
1.147281585E1,9.779465675E0,1.209571838E0,-6.071787477E-1
1.149084118E1,9.683753014E0,1.182652593E0,-7.357929349E-1
1.150887408E1,9.636494637E0,1.183250785E0,-7.160521746E-1
1.152689843E1,9.636494637E0,1.173679471E0,-7.064808607E-1
1.154492797E1,9.649655342E0,1.126421213E0,-8.213363886E-1
1.156295587E1,9.630513191E0,1.136590719E0,-8.733802438E-1
1.158098535E1,9.712467194E0,1.220937729E0,-8.219345808E-1
1.159901385E1,9.755537987E0,1.229910851E0,-8.506484628E-1
1.161704022E1,9.788438797E0,1.186840057E0,-8.356932998E-1
1.163505664E1,9.626325607E0,1.140778184E0,-7.686942816E-1
1.165310168E1,9.660423279E0,1.163509965E0,-6.592226624E-1
1.167112945E1,9.711869240E0,1.153938770E0,-7.543373108E-1
1.168916388E1,9.783653259E0,1.176670551E0,-7.357929349E-1
1.170718920E1,9.669396400E0,1.168893814E0,-7.256234884E-1
1.172521600E1,9.763913155E0,1.153340459E0,-7.926225066E-1
1.174324542E1,9.754341125E0,1.148554921E0,-8.213363886E-1
1.176127056E1,9.646664619E0,1.207179070E0,-6.831508875E-1
1.177928772E1,9.646664619E0,1.235892892E0,-7.501499057E-1
1.179733258E1,9.693922997E0,1.220937729E0,-7.214360237E-1
1.181536084E1,9.716654778E0,1.149153113E0,-7.208378315E-1
1.183339398E1,9.759725571E0,1.129412293E0,-7.070791125E-1
1.185141772E1,9.836296082E0,1.185045362E0,-6.687939167E-1
1.186944671E1,9.565906525E0,1.202991605E0,-5.970092416E-1
1.188747601E1,9.655637741E0,1.173679471E0,-7.399803996E-1
1.190550622E1,9.783055305E0,1.115055323E0,-7.543373108E-1
1.192353027E1,9.825528145E0,1.095314622E0,-7.214360237E-1
1.194154852E1,9.721440315E0,1.129412293E0,-6.687939167E-1
1.195959173E1,9.623334885E0,1.206580877E0,-4.773681164E-1
1.197762127E1,9.665806770E0,1.177268744E0,-4.534398913E-1
1.199565319E1,9.722038269E0,1.152742267E0,-5.347958803E-1
1.201367773E1,9.854242325E0,1.118644595E0,-7.214360237E-1
1.203170715E1,9.697511673E0,1.106082320E0,-7.256234884E-1
1.204973687E1,9.589237213E0,1.168893814E0,-5.587241054E-1
1.206776556E1,9.676574707E0,1.248455167E0,-3.397808075E-1
1.208579480E1,9.827322960E0,1.232901812E0,-5.641079545E-1
1.210382281E1,9.707681656E0,1.177268744E0,-6.305087805E-1
1.212185229E1,9.602995872E0,1.159920812E0,-6.299105883E-1
1.213988018E1,9.646664619E0,1.162911773E0,-4.582255483E-1
1.215790918E1,9.723235130E0,1.214357495E0,-4.492524564E-1
1.217593804E1,9.760921478E0,1.228714466E0,-5.162515044E-1
1.219396777E1,9.674779892E0,1.177268744E0,-5.539384484E-1
1.221199591E1,9.779465675E0,1.200598717E0,-6.640082598E-1
1.223002569E1,9.741779327E0,1.229312658E0,-5.688936114E-1
1.224805352E1,9.702896118E0,1.187438250E0,-6.975077987E-1
1.226608337E1,9.646664619E0,1.192223907E0,-5.443671346E-1
1.228411108E1,9.684949875E0,1.220339537E0,-5.682953596E-1
1.235622640E1,9.756135941E0,1.258026481E0,-7.166503668E-1
1.237425579E1,9.708279610E0,1.220339537E0,-7.262216806E-1
1.239228424E1,9.708877563E0,1.215553880E0,-5.784648657E-1
1.241031420E1,9.647262573E0,1.205982566E0,-4.492524564E-1
1.242834185E1,9.661619186E0,1.201196909E0,-4.636093974E-1
1.244637097E1,9.608977318E0,1.211964726E0,-6.017948985E-1
1.246440002E1,9.694520950E0,1.249651670E0,-7.070791125E-1
1.248242999E1,9.756733894E0,1.281954765E0,-6.598208547E-1
1.250045788E1,9.756733894E0,1.296311617E0,-6.885347366E-1
1.251848760E1,9.632905960E0,1.269392371E0,-7.022934556E-1
1.253651544E1,9.585647583E0,1.283749342E0,-5.593222976E-1
1.255454553E1,9.537791252E0,1.255633712E0,-5.826523304E-1
1.257257299E1,9.795019150E0,1.295115232E0,-5.928218365E-1
1.259060192E1,9.884750366E0,1.284945726E0,-7.220342159E-1
1.260863122E1,9.776474953E0,1.305284739E0,-5.928218365E-1
1.262666113E1,9.738189697E0,1.315454245E0,-6.071787477E-1
1.264468884E1,9.624530792E0,1.302293777E0,-5.306084156E-1
1.266271850E1,9.729216576E0,1.314856052E0,-4.833501875E-1
1.268074633E1,9.681360245E0,1.305882931E0,-4.875376225E-1
1.269877288E1,9.719047546E0,1.296909928E0,-6.741777658E-1
1.271678985E1,9.714262009E0,1.292124271E0,-6.598208547E-1
1.273483599E1,9.666405678E0,1.234696507E0,-5.449653864E-1
1.275286889E1,9.652647018E0,1.253240824E0,-3.296113312E-1
1.277089239E1,9.635298729E0,1.338784218E0,-1.441675574E-1
1.278892004E1,9.681958199E0,1.314856052E0,-3.684946895E-1
1.280694787E1,9.571888924E0,1.302891970E0,-6.209374666E-1
1.282497833E1,9.686145782E0,1.335195065E0,-6.933203340E-1
1.284300708E1,9.725028992E0,1.343569875E0,-4.450650215E-1
1.286103497E1,9.762118340E0,1.285543919E0,-3.732803464E-1
1.287906427E1,9.790832520E0,1.299302697E0,-3.493520916E-1
1.289709228E1,9.515657425E0,1.345962763E0,-3.966103494E-1
1.291511944E1,9.458230019E0,1.319043517E0,-5.922235847E-1
1.293315094E1,9.663414001E0,1.435693622E0,-6.317051649E-1
1.295118066E1,9.664012909E0,1.449452281E0,-5.216353536E-1
1.296920739E1,9.648459435E0,1.412363529E0,-7.842476368E-1
1.298722741E1,9.971489906E0,1.412961721E0,-7.609176040E-1
1.300525054E1,9.876974106E0,1.389033556E0,-4.935196638E-1
1.302329559E1,9.748359680E0,1.328614831E0,-4.163511395E-1
1.304132324E1,9.649655342E0,1.387238979E0,-3.355933726E-1
1.305934253E1,9.649655342E0,1.435095429E0,-4.594219327E-1
1.307738201E1,9.758528709E0,1.429711580E0,-6.317051649E-1
1.309541186E1,9.696913719E0,1.430309772E0,-6.460621357E-1
1.311344336E1,9.673583984E0,1.468594909E0,-6.029912829E-1
1.313146954E1,9.550353050E0,1.455434322E0,-3.924229145E-1
1.314949670E1,9.779465675E0,1.499701619E0,-3.074777126E-1
1.316752594E1,9.759127617E0,1.419542074E0,-4.360919297E-1
1.318555493E1,9.692128181E0,1.377069473E0,-4.498506486E-1
1.320358209E1,9.662816048E0,1.358525038E0,-4.977070987E-1
1.322160211E1,9.625727654E0,1.411765337E0,-5.024927258E-1
1.323964233E1,9.598209381E0,1.454237938E0,-3.403790295E-1
1.325767022E1,9.588638306E0,1.468594909E0,-3.547359705E-1
1.327570294E1,9.668199539E0,1.425524116E0,-5.216353536E-1
1.329372784E1,9.701699257E0,1.420140266E0,-4.881358147E-1
1.331175695E1,9.675378799E0,1.533799291E0,-2.404786795E-1
1.332978607E1,9.824331284E0,1.583450437E0,3.589234129E-2
1.334781628E1,8.832506180E0,1.006780148E0,-3.601198196E-1
1.336584411E1,9.939187050E0,1.803590059E0,-4.522434771E-1
1.338387365E1,1.015454102E1,1.654038668E0,-8.913264275E-1
1.340190167E1,9.653244972E0,1.490130305E0,-1.080359459E0
1.341992779E1,9.644271851E0,1.527817249E0,-1.009172916E0
1.343794390E1,9.845867157E0,1.585843205E0,-6.801598072E-1
1.345599005E1,9.736993790E0,1.567298889E0,-4.606183469E-1
1.347401812E1,9.475577354E0,1.523031592E0,-3.643072546E-1
1.349205499E1,9.585647583E0,1.612164259E0,-3.792623878E-1
1.351007452E1,9.674779892E0,1.593021631E0,-6.275177598E-1
1.352810455E1,9.741181374E0,1.558923960E0,-7.040880919E-1
1.354613153E1,9.749555588E0,1.501496196E0,-7.130611539E-1
1.356416229E1,9.674181938E0,1.482353687E0,-4.743770957E-1
1.358219055E1,9.583852768E0,1.478764415E0,-4.785645306E-1
1.360021930E1,9.488738060E0,1.533201098E0,-6.508477330E-1
1.361824822E1,9.641879082E0,1.602592945E0,-6.275177598E-1
1.363627801E1,9.694520950E0,1.616351724E0,-6.370890141E-1
1.365430590E1,9.499505997E0,1.609173179E0,-5.988038778E-1
1.367233545E1,9.500103951E0,1.618744493E0,-4.600201547E-1
1.369036328E1,9.665806770E0,1.621735573E0,-5.892325640E-1
1.370839337E1,9.722636223E0,1.620539188E0,-6.083751321E-1
1.372641644E1,9.514460564E0,1.637288928E0,-4.983053207E-1
1.374443200E1,9.551549911E0,1.608574986E0,-5.892325640E-1
1.376247906E1,9.628120422E0,1.607378602E0,-4.414757788E-1
1.378050891E1,9.876375198E0,1.636092424E0,-2.081755698E-1
1.379854174E1,9.834501266E0,1.713261008E0,-2.129612118E-1
1.381656677E1,9.581459999E0,1.640878081E0,-3.840480447E-1
1.383459478E1,9.518648148E0,1.637887120E0,-5.988038778E-1
1.385262432E1,9.761520386E0,1.706082582E0,-6.329016089E-1
1.387065216E1,9.885348320E0,1.704287887E0,-5.330012441E-1
1.388868115E1,9.604191780E0,1.607378602E0,-5.030909777E-1
1.390671014E1,9.461818695E0,1.619342685E0,-5.270192027E-1
1.392474029E1,9.699904442E0,1.668993831E0,-6.233302951E-1
1.394276818E1,9.533005714E0,1.647458434E0,-7.130611539E-1
1.396079626E1,9.737591743E0,1.711466432E0,-7.286145091E-1
1.397881878E1,9.850652695E0,1.672582984E0,-9.002995491E-1
1.399685522E1,9.636494637E0,1.613360643E0,-8.997012973E-1
1.401488281E1,9.376275063E0,1.654038668E0,-6.460621357E-1
1.403291388E1,9.505488396E0,1.738385677E0,-6.897311211E-1
1.405094134E1,9.713663101E0,1.784447432E0,-1.072582722E0
1.406897125E1,9.765109062E0,1.732403636E0,-1.268195987E0
1.408699890E1,9.652048111E0,1.747358680E0,-9.906286001E-1
1.410502874E1,9.653244972E0,1.798804402E0,-7.764709592E-1
1.412305609E1,9.473184586E0,1.829911113E0,-8.189435601E-1
1.414108630E1,9.497113228E0,1.882553220E0,-9.433703423E-1
1.415911419E1,9.538987160E0,1.882553220E0,-1.124626637E0
1.417714392E1,9.552745819E0,1.863410592E0,-1.191625714E0
1.419517199E1,9.652647018E0,1.838286042E0,-1.148554921E0
1.421320196E1,9.542576790E0,1.762912035E0,-1.019342422E0
1.423122992E1,9.576674461E0,1.800000787E0,-8.811569214E-1
1.424925988E1,9.538389206E0,1.786840320E0,-1.000199914E0
1.426728772E1,9.646664619E0,1.791027784E0,-1.239482164E0
1.428531768E1,9.552745819E0,1.805982947E0,-1.100698471E0
1.430334503E1,9.534201622E0,1.853839397E0,-1.024726272E0
1.432137054E1,9.604191780E0,1.767099500E0,-1.124626637E0
1.433938800E1,9.595218658E0,1.795813441E0,-1.067198873E0
1.435743316E1,9.576674461E0,1.824527264E0,-1.110269666E0
1.437546106E1,9.538389206E0,1.829911113E0,-1.119840980E0
1.439349487E1,9.580264091E0,1.801197290E0,-1.205384374E0
1.441151879E1,9.498908043E0,1.754537225E0,-1.234098315E0
1.442954846E1,9.551549911E0,1.782652855E0,-1.224527001E0
1.444757617E1,9.647860527E0,1.832902193E0,-1.039083242E0
1.446560522E1,9.471988678E0,1.831107497E0,-1.081555843E0
1.448363415E1,9.647860527E0,1.867598057E0,-1.287338614E0
1.450166406E1,9.576674461E0,1.887338877E0,-1.249053478E0
1.451969195E1,9.524630547E0,1.873580098E0,-1.196411371E0
1.453772168E1,9.557532310E0,1.873580098E0,-1.239482164E0
1.455574938E1,9.509675026E0,1.831107497E0,-1.262812138E0
1.457377996E1,9.504291534E0,1.759322882E0,-1.200598717E0
1.459180743E1,9.523433685E0,1.777867198E0,-1.115055323E0
1.460983630E1,9.561718941E0,1.782054663E0,-1.158126116E0
1.462786499E1,9.513862610E0,1.802393675E0,-1.277169108E0
1.464589495E1,9.489934921E0,1.812563181E0,-1.325025558E0
1.466392297E1,9.579665184E0,1.778465390E0,-1.420738459E0
1.468195300E1,9.626923561E0,1.763510346E0,-1.406381488E0
1.469998077E1,9.574879646E0,1.730010748E0,-1.301097274E0
1.471801074E1,9.541978836E0,1.744367719E0,-1.167099237E0
1.473603857E1,9.504291534E0,1.778465390E0,-1.195813060E0
1.475406713E1,9.462417603E0,1.836491346E0,-1.191027522E0
1.477209607E1,9.509675026E0,1.840678811E0,-1.320239902E0
1.479012622E1,9.556933403E0,1.826321840E0,-1.387238979E0
1.480815441E1,9.565906525E0,1.801795483E0,-1.296311617E0
1.482618396E1,9.585049629E0,1.768295884E0,-1.238883972E0
1.484421173E1,9.541379929E0,1.716252089E0,-1.277169108E0
1.486224170E1,9.555737495E0,1.725823283E0,-1.267597795E0
1.488026904E1,9.589237213E0,1.763510346E0,-1.272383451E0
1.489829809E1,9.532406807E0,1.749751568E0,-1.272383451E0
1.491632684E1,9.503693581E0,1.731207132E0,-1.295713425E0
1.493435681E1,9.507881165E0,1.716850281E0,-1.329213023E0
1.495238537E1,9.541379929E0,1.744965911E0,-1.301097274E0
1.497041485E1,9.527621269E0,1.764108539E0,-1.344168067E0
1.498844256E1,9.537791252E0,1.802393675E0,-1.272383451E0
1.500647125E1,9.565308571E0,1.744965911E0,-1.320239902E0
1.502449444E1,9.570094109E0,1.734796405E0,-1.267597795E0
1.504252948E1,9.637093544E0,1.748555183E0,-1.253240824E0
1.506055834E1,9.536594391E0,1.725823283E0,-1.329213023E0
1.507858935E1,9.504889488E0,1.806581140E0,-1.086341500E0
1.509661621E1,9.528220177E0,1.797009826E0,-1.167099237E0
1.511464648E1,9.564710617E0,1.721635938E0,-1.491924882E0
1.513267364E1,9.565906525E0,1.788036704E0,-1.363310695E0
1.515070343E1,9.571290970E0,1.810768485E0,-1.167697430E0
1.516873089E1,9.579665184E0,1.744367719E0,-1.262812138E0
1.518676056E1,9.569496155E0,1.721037745E0,-1.353141189E0
1.520478918E1,9.575477600E0,1.753939033E0,-1.186241865E0
1.522281896E1,9.594620705E0,1.767697692E0,-1.143769264E0
1.524084222E1,9.556335449E0,1.744367719E0,-1.253240824E0
1.525886090E1,9.537193298E0,1.764108539E0,-1.258026481E0
1.527690454E1,9.569496155E0,1.701296926E0,-1.281954765E0
1.529493457E1,9.597611427E0,1.643869162E0,-1.281356573E0
1.531296594E1,9.559326172E0,1.615753531E0,-1.228714466E0
1.533099133E1,9.579665184E0,1.686341763E0,-1.143171072E0
1.534902038E1,9.584450722E0,1.706082582E0,-1.195813060E0
1.536705017E1,9.589237213E0,1.725225091E0,-1.253240824E0
1.538507818E1,9.560523033E0,1.730010748E0,-1.248455167E0
1.540310772E1,9.588638306E0,1.706082582E0,-1.229312658E0
1.542113580E1,9.598209381E0,1.667199135E0,-1.181456208E0
1.543916565E1,9.536594391E0,1.634297848E0,-1.061815023E0
1.545719342E1,9.559925079E0,1.615155339E0,-1.023529887E0
1.547522393E1,9.645467758E0,1.637887120E0,-1.124028444E0
1.549325824E1,9.636494637E0,1.691127419E0,-1.219741344E0
1.551127478E1,9.574879646E0,1.701296926E0,-1.167099237E0
1.552928234E1,9.550353050E0,1.639681697E0,-1.171286702E0
1.554733715E1,9.588638306E0,1.628913999E0,-1.100100160E0
1.556536645E1,9.621540070E0,1.648056626E0,-1.138385415E0
1.558340356E1,9.570094109E0,1.686341763E0,-1.071386337E0
1.560142443E1,9.593423843E0,1.682154298E0,-1.205384374E0
1.561945373E1,9.550353050E0,1.673181176E0,-1.243071318E0
1.563748223E1,9.564710617E0,1.663011789E0,-1.186241865E0
1.565551232E1,9.583254814E0,1.619940877E0,-1.204786181E0
1.567354052E1,9.588040352E0,1.605584025E0,-1.124028444E0
1.569156982E1,9.588040352E0,1.595414519E0,-1.071386337E0
1.570959655E1,9.530014038E0,1.549352646E0,-1.214357495E0
1.572762402E1,9.509675026E0,1.497906923E0,-1.399801254E0
1.574565527E1,9.365508080E0,1.361516118E0,-1.489532113E0
1.576368426E1,9.540184021E0,1.210170031E0,-1.202991605E0
1.578171441E1,9.900901794E0,1.075573802E0,-8.883354068E-1
1.579974353E1,1.013300610E1,1.024726272E0,-8.602197170E-1
1.581777166E1,1.010070229E1,1.212562919E0,-1.199402332E0
1.583580102E1,9.989436150E0,1.395015597E0,-1.128814101E0
1.585382861E1,9.681958199E0,1.749751568E0,-5.611169338E-1
1.587185546E1,9.267401695E0,1.852642894E0,2.267199457E-1
1.588987359E1,9.083752632E0,1.989033818E0,1.262213886E-1
1.590791565E1,8.979066849E0,2.193620205E0,-6.807580590E-1
1.592594439E1,8.924630165E0,1.776072621E0,-1.132403374E0
1.594397735E1,9.171689034E0,1.275972724E0,-8.303094506E-1
1.596200232E1,9.253643036E0,9.355936646E-1,-6.807580590E-1
1.598003228E1,9.277571678E0,6.113662124E-1,-8.703892231E-1
1.599805987E1,9.565906525E0,2.033899277E-1,-1.227517962E0
1.601608960E1,9.784850121E0,-1.758724600E-1,-1.293320656E0
1.603411688E1,9.879366875E0,-2.548356056E-1,-1.039681435E0
1.605214624E1,1.001156998E1,-1.854437590E-2,-7.884350419E-1
1.607017517E1,1.004806042E1,2.865405083E-1,-8.662018180E-1
1.608820550E1,9.930811882E0,4.845465720E-1,-1.110269666E0
1.610623352E1,9.684949875E0,6.658028960E-1,-1.539781332E0
1.612426306E1,9.443872452E0,8.853443861E-1,-1.931606054E0
1.614229077E1,9.190832138E0,8.416753411E-1,-2.193620205E0
1.616032061E1,9.290133476E0,8.267202377E-1,-2.294118643E0
1.617834838E1,9.489934921E0,7.890332937E-1,-2.002792597E0
1.619637719E1,9.568299294E0,8.679963946E-1,-1.626521230E0
1.621440612E1,9.293723106E0,9.182456732E-1,-1.382453322E0
1.623243634E1,9.437891006E0,7.561319470E-1,-1.783251047E0
1.625046453E1,9.784252167E0,7.226324677E-1,-1.822134495E0
1.626849432E1,9.999007225E0,6.945167780E-1,-1.421336651E0
1.628652203E1,1.045184898E1,7.304090858E-1,-1.150947690E0
1.630455175E1,1.072941685E1,8.979067206E-1,-1.018146038E0
1.632257910E1,1.023948669E1,8.093722463E-1,-9.930213690E-1
1.634060839E1,9.757332802E0,6.532405615E-1,-1.019940615E0
1.635863336E1,9.504889488E0,5.126622319E-1,-7.513462901E-1
1.637665167E1,9.409176826E0,3.499503136E-1,-3.589234054E-1
1.639469519E1,9.121439934E0,6.221338734E-2,-7.537391037E-2
1.641272515E1,8.657232285E0,-2.374876440E-1,7.537391037E-2
1.643075671E1,8.310273170E0,-3.098705411E-1,1.477568001E-1
1.644878308E1,8.102097511E0,-2.111666054E-1,1.387837082E-1
1.646681024E1,8.508278847E0,-1.615155302E-2,3.170489892E-2
1.648483538E1,9.810572624E0,-2.081755698E-1,-4.911268353E-1
1.650285296E1,1.133599758E1,-4.025924206E-1,-1.061815023E0
1.652089874E1,1.264427280E1,-2.338984162E-1,-1.161117196E0
1.659301098E1,1.022991467E1,-9.044869542E-1,-1.968694806E0
1.661103570E1,1.171825027E1,-7.082754970E-1,-2.350350142E0
1.662907055E1,1.251206970E1,-6.430711150E-1,-8.823533654E-1
1.664709924E1,1.197129154E1,-4.923232496E-1,1.974078715E-1
1.666513055E1,1.043988514E1,6.640082598E-2,-8.087740541E-1
1.668315734E1,1.010608673E1,6.430711150E-1,-1.984846354E0
1.670118737E1,1.010130119E1,1.207777262E0,-2.536391973E0
1.671921496E1,1.060977554E1,1.380060434E0,-3.282952785E0
1.673724499E1,1.092263699E1,1.884347796E0,-3.920639992E0
1.675527240E1,1.006660461E1,2.166700840E0,-3.738785267E0
1.677330133E1,8.318049431E0,2.020738840E0,-3.122633457E0
1.679133038E1,7.082156658E0,1.806581140E0,-2.612364054E0
1.680936041E1,7.797012806E0,1.953141451E0,-2.338385820E0
1.682738500E1,8.562715530E0,2.328814745E0,-2.088934183E0
1.684540393E1,9.405587196E0,2.532204628E0,-2.172683001E0
1.686344610E1,9.951150894E0,2.819941521E0,-1.974676847E0
1.688147595E1,9.554540634E0,2.566900492E0,-1.782054663E0
1.689950726E1,7.974679470E0,1.992623091E0,-2.014158487E0
1.691753265E1,6.865008354E0,1.473978758E0,-2.271985054E0
1.693556207E1,6.273981094E0,1.208973646E0,-2.006381750E0
1.695359124E1,6.391827583E0,1.063011408E0,-1.643270969E0
1.697161932E1,7.268198967E0,1.232303619E0,-1.603191137E0
1.698964935E1,8.174480438E0,1.502094388E0,-1.621137381E0
1.700767712E1,9.088538170E0,1.979462504E0,-1.191027522E0
1.702570715E1,9.583254814E0,2.334796667E0,-9.122636318E-1
1.704373138E1,9.847063065E0,2.584248543E0,-9.708877802E-1
1.706175171E1,9.616754532E0,2.787638426E0,-9.810572863E-1
1.707979217E1,9.412766457E0,2.813959360E0,-9.756734371E-1
1.709782202E1,9.385847092E0,2.552543640E0,-1.079761267E0
1.711585308E1,9.352945328E0,2.146361828E0,-8.536394835E-1
1.713388000E1,9.399007797E0,1.804188251E0,-1.674975827E-2
1.715190808E1,9.629914284E0,1.816750646E0,8.422735929E-1
1.716993786E1,9.844670296E0,2.059622049E0,2.626122832E-1
1.718796551E1,1.012582684E1,2.427518606E0,-9.900303483E-1
1.720599493E1,1.061635590E1,2.685943365E0,-1.579861164E0
1.722402356E1,1.100219822E1,3.036491871E0,-9.852447510E-1
1.724205365E1,1.092383385E1,2.836691141E0,4.001995921E-1
1.726007794E1,1.116909790E1,2.491526604E0,1.183848977E0
1.727809655E1,1.222672558E1,2.083550215E0,7.154539824E-1
1.729614227E1,1.292602825E1,1.886142492E0,-1.252642632E0
1.731416296E1,1.210050392E1,1.396211982E0,-5.234299660E0
1.733217456E1,1.068754196E1,1.293918848E0,-8.476573944E0
1.735022479E1,8.012366295E0,2.967100143E-1,-9.234500885E0
1.736825415E1,6.451648235E0,-7.477570772E-1,-7.517052174E0
1.738629113E1,6.618547440E0,-1.298106313E0,-3.767499208E0
1.740431237E1,9.681360245E0,-5.874379873E-1,6.807580590E-1
1.742234240E1,1.234397411E1,4.510470629E-1,1.814955950E0
1.744036987E1,1.407877064E1,1.920240164E0,-5.156532526E-1
1.745839996E1,1.293021584E1,2.775674343E0,-3.299702406E0
1.747642718E1,1.041057301E1,2.909672260E0,-5.843272686E0
1.749445629E1,8.766703606E0,3.135195971E0,-6.795018196E0
1.751248168E1,7.704888821E0,3.416950703E0,-5.638088226E0
1.753050164E1,6.805785656E0,3.226123095E0,-3.759124279E0
1.754854382E1,5.131408215E0,2.539981127E0,-1.689931035E0
1.756656933E1,4.118047714E0,1.269392371E0,-2.781656384E-1
1.758458923E1,5.108078003E0,7.034898400E-1,8.626125455E-1
1.760263086E1,6.732804775E0,4.348955154E-1,1.938784599E0
1.762065850E1,8.564510345E0,5.330012441E-1,2.258226395E0
1.763869134E1,9.753145218E0,8.015955687E-1,1.537986755E0
1.765671630E1,1.007677460E1,1.130608678E0,4.331009090E-1
1.767474615E1,9.514460564E0,1.704886079E0,-6.466603279E-1
1.769277453E1,9.139984131E0,2.308475733E0,-1.335793257E0
1.771080432E1,9.218349457E0,2.266601324E0,-1.846660852E0
1.772883221E1,9.139386177E0,1.585245013E0,-1.767099500E0
1.774686206E1,9.028717995E0,8.141579032E-1,-6.179464459E-1
1.776488916E1,9.933803558E0,5.383850932E-1,1.061815023E0
1.778291845E1,1.169432259E1,7.860422134E-1,2.541177750E0
1.780094348E1,1.287518024E1,1.516451359E0,2.014756680E0
1.781896228E1,1.268136215E1,1.881356835E0,8.817551732E-1
1.783700549E1,1.328495121E1,1.926820397E0,-7.286145091E-1
1.785503527E1,1.319641685E1,1.729412556E0,-2.446063042E0
1.787306683E1,1.301994610E1,1.781456470E0,-4.365106583E0
1.789109283E1,1.300678539E1,1.849053741E0,-5.806782246E0
1.790912036E1,1.029571724E1,1.574477315E0,-5.593821049E0
1.792714941E1,7.483552933E0,6.215356588E-1,-4.914259434E0
1.794517828E1,5.637490273E0,4.642075896E-1,-2.130808592E0
1.796320831E1,5.868995667E0,1.266999602E0,4.809573591E-1
1.798123645E1,9.467801094E0,1.390229940E0,6.532405615E-1
1.799926623E1,1.212503052E1,1.600200176E0,-1.115653515E0
1.801729400E1,1.144606686E1,1.112662554E0,-3.594019651E0
1.803532379E1,9.787840843E0,7.447660565E-1,-3.856033802E0
1.805335131E1,8.417351723E0,5.952146053E-1,-2.347957134E0
1.807138037E1,8.145168304E0,1.357926875E-1,-1.066002488E0
1.808940942E1,8.437690735E0,-4.743770957E-1,-9.116654396E-1
1.810744000E1,8.697312355E0,-1.956132501E-1,-1.109073281E0
1.812546740E1,8.906683922E0,4.241278172E-1,-1.775474429E0
1.814349719E1,7.641479015E0,7.178468108E-1,-1.874178290E0
1.816152496E1,6.632306099E0,8.440681696E-1,-1.375872970E0
1.817955548E1,6.608976364E0,1.510469317E0,-8.009973764E-1
1.819758233E1,7.551748276E0,2.089532375E0,-8.344969153E-1
1.821561163E1,8.173283577E0,2.835494757E0,-9.493523836E-1
1.823364032E1,8.876773834E0,3.439084291E0,-1.650449395E0
1.825167047E1,9.461818695E0,3.590430260E0,-2.087139606E0
1.826969830E1,9.711270332E0,3.680759430E0,-1.648654819E0
1.828772998E1,9.927223206E0,3.616751432E0,-6.035895348E-1
1.830575970E1,9.942177773E0,3.417548895E0,4.091726840E-1
1.832377093E1,9.775279045E0,3.255435228E0,8.446664214E-1
1.834181378E1,9.525228500E0,3.016152859E0,6.843472719E-1
1.835984069E1,9.662816048E0,2.807379246E0,-7.178467698E-3
1.837787518E1,1.002951622E1,2.458625317E0,5.024927482E-2
1.839590155E1,1.010369396E1,2.136192322E0,6.101697683E-1
1.841393023E1,1.018445110E1,1.627717614E0,1.042074203E0
1.843195904E1,1.125882912E1,8.979067206E-1,1.071386337E0
1.844998687E1,1.318923855E1,4.594219327E-1,1.617548108E0
1.846801672E1,1.358046532E1,8.207381964E-1,-6.191428304E-1
1.848604480E1,1.275494099E1,9.110672474E-1,-5.276772022E0
1.850407476E1,1.009292603E1,4.283152521E-1,-8.347361565E0
1.852210241E1,7.928617954E0,-4.283152521E-1,-8.844470978E0
1.854013263E1,7.007380962E0,-1.658824325E0,-7.042077065E0
1.855816027E1,8.423334122E0,-1.347159147E0,-2.239681959E0
1.857619055E1,1.219980621E1,2.566302419E-1,2.073979139E0
1.859421801E1,1.374138260E1,1.802991867E0,1.457229018E0
1.861225018E1,1.375932884E1,3.065205812E0,-7.537391186E-1
1.863028460E1,1.218784237E1,3.662214994E0,-4.185046673E0
1.864830444E1,1.040159988E1,3.571287870E0,-6.829713821E0
1.866633331E1,9.443872452E0,3.543770313E0,-7.557132244E0
1.868436102E1,7.773084164E0,3.230908871E0,-5.880959988E0
1.870239148E1,5.401797295E0,2.334198475E0,-2.534597397E0
1.872042126E1,3.544368505E0,1.125823021E0,6.167500615E-1
1.873844903E1,5.068596363E0,4.336991012E-1,2.935993433E0
1.875647882E1,6.631708145E0,2.482553422E-1,3.649054527E0
1.877450634E1,7.886743546E0,1.776670814E-1,2.729612350E0
1.879253546E1,8.550153732E0,3.409772217E-1,1.447657704E0
1.881056451E1,9.010771751E0,5.569294691E-1,6.340979934E-1
1.882859430E1,8.430512428E0,8.991031051E-1,5.198407173E-1
1.884662249E1,7.860422611E0,1.673779488E0,7.130611539E-1
1.886465234E1,8.231907845E0,2.218744755E0,4.666004181E-1
1.888267987E1,8.669795036E0,2.362314224E0,2.093719877E-2
1.890071032E1,8.590831757E0,1.771885157E0,-3.349951655E-2
1.891873748E1,8.945567131E0,1.000798106E0,7.806583643E-1
1.893676251E1,1.017188931E1,8.620143533E-1,2.978466034E0
1.895477954E1,1.181396389E1,1.139581800E0,4.524827480E0
1.897282544E1,1.242054367E1,1.582852125E0,3.862613916E0
1.899085363E1,1.230090332E1,1.441675663E0,2.460419893E0
1.900888806E1,1.364507103E1,9.565308690E-1,-2.141576260E-1
1.902691101E1,1.544626808E1,1.338186026E0,-1.461416483E0
1.904493756E1,1.559821224E1,2.032702923E0,-2.782254457E0
1.906295349E1,1.414756393E1,2.951546669E0,-3.632902861E0
1.908099792E1,1.031486034E1,1.820339799E0,-5.093721390E0
1.909902661E1,6.606583118E0,6.747759581E-1,-4.468596458E0
1.911706018E1,4.485345840E0,3.900300860E-1,-2.471187592E0
1.913508453E1,6.056233883E0,1.363908887E0,7.908278704E-1
1.915311425E1,1.063370419E1,1.748555183E0,1.469791293E0
1.917114190E1,1.233200932E1,1.931606054E0,3.768695518E-2
1.918917199E1,1.083290672E1,1.646860242E0,-1.322632670E0
1.920719970E1,8.697910309E0,1.208973646E0,-1.740180254E0
1.922522857E1,7.739584923E0,6.412764788E-1,-2.055434704E0
1.924325360E1,7.591827869E0,1.507478207E-1,-1.857428551E0
1.926127215E1,7.733004570E0,-2.123630047E-1,-9.296116233E-1
1.927931530E1,8.460422516E0,-8.793623000E-2,2.279163599E-1
1.929734271E1,9.108279228E0,3.457628787E-1,6.155536175E-1
1.931536639E1,8.887541771E0,7.034898400E-1,1.752742529E-1
1.933340295E1,7.661220074E0,1.087537885E0,-1.854437590E-2
1.935143042E1,7.284948349E0,1.484746456E0,-2.201396823E-1
1.936946209E1,7.684549809E0,1.928016901E0,-2.374876440E-1
1.938748455E1,8.285148621E0,2.160120726E0,-6.167500615E-1
1.940550317E1,8.741579056E0,2.254637241E0,-8.333004713E-1
1.942354626E1,9.042476654E0,2.644667149E0,-2.201396823E-1
1.944157635E1,9.366703987E0,2.909074068E0,5.419743061E-1
1.945960815E1,9.239286423E0,2.924029350E0,8.333004713E-1
1.947763427E1,9.015557289E0,2.676970243E0,3.768695518E-2
1.949566186E1,9.908679008E0,2.834298372E0,-5.521438122E-1
1.951369036E1,1.102672482E1,3.252444267E0,-2.321037948E-1
1.953171453E1,1.181097221E1,3.554538012E0,3.948157430E-1
1.954973040E1,1.179721355E1,3.115455151E0,5.587241054E-1
1.956777746E1,1.194497108E1,2.933002472E0,1.537986755E0
1.958580725E1,1.225065327E1,2.261217356E0,1.621137381E0
1.960383978E1,1.231765270E1,1.710868239E0,-8.111668825E-1
1.962186511E1,1.191625690E1,9.332008362E-1,-4.506283283E0
1.963989264E1,1.050329494E1,-6.281159073E-2,-7.319644451E0
1.965792169E1,8.665607452E0,-1.202991605E0,-7.200601578E0
1.967595044E1,8.112865448E0,-1.967498422E0,-4.899902344E0
1.969398028E1,9.067601204E0,-2.881556749E0,1.333998591E-1
1.971200860E1,1.071625614E1,-3.388236761E0,3.573680639E0
1.973003808E1,1.315813160E1,-2.492722988E0,1.597209096E0
1.974805908E1,1.477747440E1,6.406782866E-1,-1.250249892E-1
1.976606921E1,1.273460197E1,1.557129383E0,-1.962114573E0
1.978412378E1,1.080838013E1,2.306082726E0,-4.061218262E0
1.980215258E1,9.763913155E0,2.638685226E0,-5.081159115E0
1.982019079E1,8.868398666E0,2.706282377E0,-4.621138573E0
1.983822003E1,8.208578110E0,2.863012314E0,-3.379263878E0
1.985623993E1,6.921837807E0,2.391027927E0,-1.469193101E0
1.987426922E1,5.417948723E0,1.683350682E0,5.138586760E-1
1.989229492E1,4.592424870E0,6.735795736E-1,1.761715651E0
1.991032739E1,5.852245808E0,2.117647976E-1,2.127817631E0
1.992835449E1,7.461419106E0,5.084748194E-2,2.401795626E0
1.994638360E1,8.730213165E0,2.512463629E-1,1.710269928E0
1.996441235E1,8.870193481E0,5.521438122E-1,1.140778184E0
1.998243841E1,8.474181175E0,9.260223508E-1,8.297112584E-1
2.000045343E1,8.264809608E0,1.344168067E0,6.849454641E-1
2.001850012E1,8.465806961E0,1.451246977E0,7.459624410E-1
2.003652813E1,8.737990379E0,1.185643673E0,5.653043389E-1
2.005456244E1,9.135796547E0,7.663014531E-1,3.038884699E-1
2.007258551E1,9.840482712E0,7.214360237E-1,8.751748800E-1
2.009061456E1,1.152144146E1,1.152742267E0,2.009970903E0
2.010863983E1,1.252822113E1,1.752742529E0,2.620738983E0
2.012665850E1,1.216032505E1,2.030309916E0,2.438884497E0
2.014470153E1,1.212622738E1,1.722832322E0,1.743171334E0
2.016273120E1,1.335972691E1,1.400399446E0,-5.258227587E-1
2.018076257E1,1.424746418E1,1.244866014E0,-1.601396561E0
2.019878826E1,1.371386433E1,1.360917926E0,-2.669791937E0
2.021681012E1,1.288355541E1,1.984248161E0,-3.148356438E0
2.023483014E1,9.242277145E0,1.127617717E0,-3.593421459E0
2.025287725E1,6.859624386E0,4.277170599E-1,-3.031108141E0
2.027091668E1,6.935596466E0,6.669993401E-1,-1.041476011E0
2.028893634E1,9.322437286E0,1.182652593E0,5.641079545E-1
2.030696228E1,1.127378368E1,1.548754454E0,3.954139352E-1
2.032498730E1,1.082991505E1,1.354935765E0,-1.068395257E0
2.034302062E1,9.583852768E0,9.439685345E-1,-1.497906923E0
2.036104644E1,8.120043755E0,4.277170599E-1,-1.196411371E0
2.037907183E1,7.752147198E0,-2.171486616E-1,-8.679963946E-1
2.039710540E1,7.855636597E0,-7.196413875E-1,-7.944171429E-1
2.041513549E1,8.301898003E0,-1.107278705E0,-8.464609981E-1
2.043316461E1,9.118449211E0,-2.727817893E-1,1.411765367E-1
2.045119317E1,9.339784622E0,3.056831062E-1,3.337987661E-1
2.046922100E1,8.551948547E0,8.321040869E-1,1.184447184E-1
2.048724719E1,7.904091358E0,1.272383451E0,-5.688936114E-1
2.050526257E1,8.107481003E0,1.753939033E0,-1.135394335E0
2.052330609E1,8.476573944E0,2.141576290E0,-1.529013634E0
2.054133697E1,8.606983185E0,2.254039049E0,-1.396211982E0
2.055937048E1,8.709874153E0,2.031506538E0,-9.134600163E-1
2.057739538E1,8.808578491E0,1.779661894E0,-3.014956415E-1
2.059542456E1,9.142974854E0,1.657029629E0,6.532405615E-1
2.061345227E1,1.009113121E1,2.002792597E0,1.733001828E0
2.063148217E1,1.072762203E1,2.241476536E0,7.040880919E-1
2.064950958E1,1.103809071E1,2.550748825E0,-1.456032634E0
2.066753906E1,1.081496048E1,2.713460922E0,-2.043470621E0
2.068556744E1,1.000618649E1,2.372483730E0,-1.085145116E0
2.070359771E1,9.653842926E0,1.498505235E0,4.947160780E-1
2.072162542E1,9.600004196E0,2.775674164E-1,1.798804402E0
2.073965234E1,1.062054348E1,-1.231705427E0,2.581257343E0
2.075767187E1,1.133420277E1,-2.348555326E0,2.622533560E0
2.077571295E1,1.152443218E1,-2.224128723E0,-6.675975323E-1
2.079374054E1,1.201376438E1,-1.508674622E0,-5.001597404E0
2.081177246E1,1.124686432E1,-1.258026481E0,-8.008777618E0
2.082979889E1,8.973084450E0,-1.596012712E0,-7.729415417E0
2.084782843E1,7.709674358E0,-2.257628202E0,-5.030909538E0
2.086585656E1,1.000977516E1,-1.572084427E0,3.948157281E-2
2.088388629E1,1.335553932E1,-2.380858511E-1,1.424327731E0
2.090191436E1,1.489950848E1,9.834501147E-1,-3.655036688E-1
2.091994390E1,1.473260880E1,2.103291035E0,-3.358326674E0
2.093797149E1,1.297448254E1,2.880958557E0,-4.813162804E0
2.095600079E1,1.049491978E1,3.053839922E0,-5.242674351E0
2.097402984E1,8.131409645E0,2.536990166E0,-4.045664787E0
2.099205944E1,6.230910301E0,1.590628862E0,-1.917249203E0
2.101008770E1,5.975476265E0,6.652047038E-1,3.260220885E-1
2.102811712E1,6.719046116E0,1.208375469E-1,1.701296926E0
2.104614502E1,7.688138962E0,-2.781656384E-1,1.653440475E0
2.106417553E1,8.350951195E0,-4.396811724E-1,1.570888042E0
2.108220251E1,8.691927910E0,-8.554340899E-2,1.420738459E0
2.110023205E1,8.598010063E0,4.217349887E-1,1.251446247E0
2.111825653E1,8.394021988E0,6.556333899E-1,5.970092416E-1
2.113627502E1,7.968697548E0,9.445667267E-1,1.627119333E-1
2.115431860E1,7.830512047E0,1.313659668E0,1.710868180E-1
2.117234820E1,7.872984886E0,1.487139225E0,8.572286963E-1
2.119038000E1,8.275577545E0,1.207777262E0,1.459023595E0
2.120840631E1,8.511868477E0,1.022333503E0,1.779063582E0
2.122643365E1,8.633902550E0,1.483550072E-1,1.587039590E0
2.124446276E1,8.790632248E0,-2.063809484E-1,1.487737536E0
2.126249170E1,9.702297211E0,8.973085321E-3,1.914258122E0
2.128052160E1,1.067916775E1,3.062812984E-1,1.834098577E0
2.129854992E1,1.181994534E1,7.836494446E-1,1.571486235E0
2.131657934E1,1.220399380E1,8.273184299E-1,1.169492126E0
2.133460699E1,1.135573769E1,5.030909777E-1,1.636092424E0
2.135263696E1,1.163629627E1,2.374876440E-1,2.748754978E0
2.137066461E1,1.313360500E1,-6.323033571E-1,1.722234130E0
2.138869409E1,1.471226978E1,-1.112662554E0,-4.749752879E-1
2.140672326E1,1.316351604E1,-6.951149702E-1,-2.057827473E0
2.142475280E1,9.503094673E0,-1.214357466E-1,-3.426522017E0
2.144278082E1,6.919445038E0,-4.683950245E-1,-4.779065132E0
2.146081018E1,5.397609711E0,-4.851447940E-1,-3.777668715E0
2.147883789E1,6.533003807E0,-8.207381964E-1,-1.005583763E0
2.149686413E1,1.018505001E1,-9.224331379E-1,4.612165689E-1
2.151488043E1,1.209930801E1,-1.150947690E0,1.111466169E0
2.153292492E1,1.280160141E1,-1.188634634E0,1.114457130E0
2.155095367E1,1.226321602E1,-1.063011408E0,6.999006122E-2
2.156898724E1,1.070130062E1,-7.573283911E-1,-2.142772675E0
2.158701153E1,9.845867157E0,-9.421738982E-1,-4.560121536E0
2.160504132E1,9.903294563E0,-8.129615188E-1,-4.884947300E0
2.162306921E1,9.683753014E0,-5.784648657E-1,-3.090928555E0
2.164109716E1,9.450452805E0,-3.876372576E-1,-9.667003751E-1
2.165911847E1,9.072985649E0,3.948157281E-2,-2.087737769E-1
2.167715582E1,8.855237961E0,5.826523304E-1,-6.257231236E-1
2.169518463E1,8.773283958E0,1.077966571E0,-1.420140266E0
2.171321673E1,9.089735031E0,1.578066587E0,-2.282154560E0
2.173124273E1,9.203991890E0,2.049452543E0,-2.494517565E0
2.174927227E1,8.665008545E0,2.522633314E0,-2.065604210E0
2.176730023E1,8.224729538E0,2.845664263E0,-1.316650629E0
2.178533190E1,7.764111042E0,3.062813044E0,-3.906283081E-1
2.180336297E1,7.318448067E0,2.903092146E0,5.042873621E-1
2.182138726E1,7.734200954E0,2.624926329E0,6.855437160E-1
2.183941076E1,8.659625053E0,2.608176708E0,5.449653864E-1
2.185742559E1,9.215956688E0,2.451446772E0,-2.243271172E-1
2.187547381E1,9.381659508E0,2.078166485E0,-5.282155871E-1
2.189350329E1,9.403194427E0,1.727019787E0,1.363908947E-1
2.191153601E1,9.585049629E0,1.515254974E0,1.311266780E0
2.192956103E1,9.926026344E0,9.804590940E-1,1.556531072E0
2.194758868E1,1.049192905E1,1.758724600E-1,1.692323804E0
2.196561767E1,1.103091240E1,-4.809573591E-1,1.889133453E0
2.198364660E1,1.195693493E1,-5.509474277E-1,1.973480463E0
2.200167694E1,1.268913841E1,-5.060819983E-1,-2.506481647E0
2.201970520E1,1.160818100E1,1.316052526E-1,-5.867201328E0
2.203773449E1,1.148794174E1,4.109672904E-1,-7.386643410E0
2.205576226E1,1.176790142E1,-7.040880919E-1,-6.279364586E0
2.207379223E1,1.005703354E1,-2.787638426E0,-2.910270452E0
2.209181988E1,8.796614647E0,-3.633501291E0,-3.161516905E0
2.210984887E1,1.017069244E1,-1.924427629E0,-3.382254839E0
2.212787750E1,1.261675549E1,-3.451646566E-1,-1.929213285E0
2.214590771E1,1.337647724E1,4.175475538E-1,-5.838487148E-1
2.216393579E1,1.238465214E1,4.438686073E-1,-3.140579760E-1
2.218196618E1,1.111645603E1,7.992027402E-1,-1.420140266E0
2.219998938E1,1.025145054E1,1.111466169E0,-2.818146944E0
2.221800415E1,8.867202759E0,1.185643673E0,-3.693321705E0
2.223603192E1,7.867002487E0,1.331605792E0,-3.547957659E0
2.225406549E1,7.340581894E0,1.520638824E0,-2.359323025E0
2.227211254E1,7.318448067E0,1.634297848E0,-7.938188910E-1
2.229014257E1,7.138388157E0,1.737189293E0,4.043870270E-1
2.230817071E1,6.798008919E0,1.749153376E0,1.025922656E0
2.232619659E1,6.602993965E0,1.577468276E0,1.609771490E0
2.234422418E1,7.197012424E0,7.680960894E-1,1.673779488E0
2.236225427E1,8.525029182E0,2.021935135E-1,1.520040631E0
2.238028216E1,9.681360245E0,-4.666004330E-2,1.585245013E0
2.239831066E1,1.000618649E1,1.112662554E-1,1.526620865E0
2.241633990E1,1.065882874E1,4.384847581E-1,9.074779749E-1
2.243436956E1,1.089212894E1,9.714859724E-1,5.084748268E-1
2.245239782E1,9.686145782E0,1.005583763E0,7.166503668E-1
2.247042724E1,8.903693199E0,1.024128079E0,1.062413216E0
2.248845520E1,9.325428009E0,7.830511928E-1,1.568495274E0
2.250648541E1,9.914062500E0,1.860419661E-1,2.218744755E0
2.252451275E1,1.036750221E1,-5.850451589E-1,2.745764017E0
2.254254193E1,1.045424175E1,-1.037288666E0,3.454039574E0
2.256057110E1,1.008455086E1,-1.072582722E0,3.918246984E0
2.257860095E1,9.973882675E0,-1.049850941E0,3.302693367E0
2.259662902E1,1.093460083E1,-1.298704505E0,1.482951880E0
2.261465844E1,1.222612762E1,-1.208375454E0,-4.923232496E-1
2.263268634E1,1.262393379E1,-1.153938770E0,-1.228714466E0
2.265071630E1,1.237926769E1,-6.317051649E-1,-9.104689956E-1
2.266874371E1,1.191864967E1,5.024927482E-2,-1.824527264E0
2.268677301E1,1.078564835E1,5.904290080E-1,-3.113062143E0
2.270480181E1,1.011446095E1,9.391828775E-1,-3.466003656E0
2.272283197E1,9.692128181E0,1.349551916E0,-3.251846075E0
2.274086023E1,9.561718941E0,1.744367719E0,-2.456232548E0
2.275888970E1,9.501898766E0,1.641476393E0,-1.515254974E0
2.277691729E1,9.388837814E0,9.026923180E-1,-1.311266780E0
2.279494720E1,9.658628464E0,3.684946895E-1,-1.089930773E0
2.281297467E1,9.272188187E0,8.554340899E-2,-4.911268353E-1
2.283100421E1,8.528617859E0,-2.303091735E-1,-1.154536903E-1
2.284903283E1,7.855038643E0,-5.653043389E-1,-8.853443712E-2
2.286706317E1,7.887939930E0,-8.739784956E-1,-5.551348329E-1
2.288509118E1,8.241478920E0,-9.672985673E-1,-1.032503009E0
2.290312097E1,8.628518105E0,-7.818548083E-1,-9.726824164E-1
2.292114685E1,8.874979019E0,-1.668993831E-1,-5.748756528E-1
2.293917187E1,8.967700958E0,4.474578202E-1,-4.917250574E-1
2.295720575E1,9.030512810E0,9.332008362E-1,-5.988038778E-1
2.297523492E1,9.057432175E0,1.649253011E0,-7.836494446E-1
2.299326568E1,9.575477600E0,2.212164640E0,-1.436291814E0
2.301129425E1,1.000618649E1,2.536990166E0,-1.692323804E0
2.302932196E1,9.832706451E0,2.705085993E0,-1.482353687E0
2.304735186E1,8.874381065E0,2.369492531E0,-1.320838094E0
2.306537939E1,7.317849636E0,2.108675003E0,-1.277767301E0
2.308340954E1,6.050251961E0,1.502094388E0,-1.706680775E0
2.310143701E1,6.995417118E0,8.279166222E-1,-2.183450699E0
2.311946618E1,8.565108299E0,3.314059377E-1,-1.216152072E0
2.313749402E1,9.622735977E0,-4.426721856E-2,-3.098705411E-1
2.315552032E1,9.513264656E0,-3.080759048E-1,5.030909777E-1
2.317355310E1,9.236893654E0,-6.167500615E-1,-1.441675574E-1
2.319158282E1,8.365307808E0,-1.109073281E0,-1.920240164E0
2.320961187E1,8.047660828E0,-1.162911773E0,-3.046063185E0
2.322764074E1,8.175676346E0,-9.667003751E-1,-2.297708035E0
2.324566827E1,8.130212784E0,-8.087740541E-1,-2.231307030E0
2.326369732E1,7.511070251E0,-5.862415433E-1,-3.524627686E0
2.328172625E1,8.117650986E0,-8.494520187E-2,-4.392624378E0
2.329975671E1,9.670592308E0,-5.204389244E-2,-4.797609329E0
2.331778448E1,9.997811317E0,-4.761717021E-1,-3.412165165E0
2.333581384E1,9.684949875E0,-7.495517135E-1,-5.647061467E-1
2.335383734E1,8.867202759E0,-5.264210105E-1,-2.392822690E-2
2.337185028E1,8.672785759E0,1.429711580E-1,-1.038485050E0
2.338988446E1,8.102097511E0,1.243071318E0,-2.316850424E0
2.340792877E1,7.561917782E0,2.051247120E0,-3.512065411E0
2.342596179E1,7.935198307E0,1.241874933E0,-2.660220623E0
2.344399121E1,8.559126854E0,4.049852192E-1,-4.713860750E-1
2.346201568E1,8.049455643E0,-1.818545163E-1,1.336989641E0
2.348004522E1,7.578069210E0,-5.886343718E-1,-4.313062727E-1
2.349807281E1,7.889136314E0,-8.267202377E-1,-1.777269006E0
2.351610278E1,8.376075745E0,-9.224331379E-1,-2.131406784E0
2.353413037E1,8.541778564E0,-8.081758618E-1,-1.325623751E0
2.355215954E1,7.899305820E0,-8.560323119E-1,-1.481157184E0
2.357018866E1,7.936992645E0,-7.537391186E-1,-3.505485058E0
2.358821905E1,7.540980339E0,-4.366901219E-1,-5.248656273E0
2.360625079E1,7.769495010E0,-1.130608693E-1,-4.725226402E0
2.362428961E1,9.829116821E0,8.853443712E-2,-3.289532900E0
2.364230407E1,1.203888893E1,5.449653864E-1,-3.206382275E0
2.366033435E1,1.230628681E1,6.233302951E-1,-4.734797955E0
2.367835839E1,1.101356411E1,-6.340979785E-2,-5.201398373E0
2.369639123E1,1.104766178E1,-3.888336718E-1,-3.744169235E0
2.371441723E1,1.055593681E1,-8.685946465E-1,-2.662015200E0
2.373244000E1,1.034955597E1,-6.364908218E-1,-2.709871531E0
2.375047753E1,1.090887833E1,-2.955136001E-1,-2.794218540E0
2.376850732E1,9.934999466E0,-2.482553422E-1,-2.954537868E0
2.378653741E1,8.632107735E0,-1.860419661E-1,-3.547957659E0
2.380456536E1,7.316653252E0,5.443671346E-2,-4.448257446E0
2.382259307E1,7.429116249E0,3.684946895E-1,-4.631308079E0
2.384061944E1,9.229117393E0,9.912267923E-1,-4.065405846E0
2.385864068E1,1.044826031E1,1.517049551E0,-3.646063566E0
2.387668072E1,1.123310566E1,1.549352646E0,-3.552743435E0
2.389470910E1,1.144546890E1,1.113260746E0,-3.737588882E0
2.391274115E1,1.294756317E1,4.839483798E-1,-4.177269936E0
2.393076410E1,1.351585865E1,-7.429714203E-1,-4.688735962E0
2.394878686E1,1.288056469E1,-1.779063582E0,-3.317648649E0
2.396682385E1,1.282852077E1,-2.788834810E0,-2.286940336E0
2.398485333E1,1.489891052E1,-3.196810961E0,-2.581257343E0
2.400288440E1,1.551207066E1,-3.350549936E0,-2.028515339E0
2.402091253E1,1.420259857E1,-3.069393158E0,-9.762716293E-1
2.403894024E1,1.291884899E1,-2.173281193E0,-1.651047617E-1
2.405696521E1,1.164467144E1,-1.049850941E0,1.207777262E0
2.407497583E1,1.112064362E1,-5.108676553E-1,1.856232166E0
2.409301501E1,9.854840279E0,1.118644550E-1,1.827518344E0
2.411105548E1,9.339784622E0,3.146561682E-1,4.725824594E-1
2.412908819E1,9.067003250E0,4.175475538E-1,-5.874379873E-1
2.414711334E1,8.675776482E0,7.519445419E-1,6.628118753E-1
2.416514318E1,8.449056625E0,1.051645517E0,2.977269650E0
2.418317175E1,8.411369324E0,1.293320656E0,3.654438496E0
2.420119964E1,8.518448830E0,1.777867198E0,2.535195589E0
2.421922033E1,8.581260681E0,2.041077614E0,1.994417667E0
2.423725872E1,7.883752346E0,1.943570137E0,2.550150633E0
2.425528619E1,7.540382385E0,2.011167526E0,3.486342669E0
2.427331762E1,8.109873772E0,2.322832584E0,3.655634880E0
2.429134436E1,9.067601204E0,2.553740025E0,3.604189157E0
2.430937463E1,9.966704369E0,2.907279491E0,3.977469444E0
2.432740252E1,9.569496155E0,3.055634499E0,4.106681824E0
2.434543249E1,9.070592880E0,3.091526747E0,3.936193228E0
2.436345623E1,8.724829674E0,3.162115097E0,4.036691666E0
2.438147497E1,8.626125336E0,3.220739365E0,4.132404804E0
2.439951757E1,9.745966911E0,3.133999348E0,4.120440483E0
2.441754675E1,9.817750931E0,2.712862730E0,4.222135544E0
2.443557959E1,9.693324089E0,2.633301258E0,4.318446636E0
2.445360577E1,8.726025581E0,2.035693884E0,4.232903481E0
2.447163366E1,8.062616348E0,2.154138565E0,4.243670940E0
2.448966345E1,8.278568268E0,1.956132531E0,4.162913322E0
2.450769146E1,8.013563156E0,2.083550215E0,4.124628067E0
2.452572137E1,7.141977310E0,1.861616015E0,4.180261135E0
2.454374908E1,6.878168583E0,2.041077614E0,4.189832687E0
2.456177795E1,7.299903870E0,1.620539188E0,5.522036552E0
2.457980718E1,7.034300327E0,1.521835208E0,6.110671043E0
2.459783673E1,5.551946640E0,1.353739381E0,5.207978249E0
2.461586511E1,4.500301361E0,1.572084427E0,5.376672268E0
2.463389453E1,4.998008251E0,2.348555326E0,6.518048763E0
2.465192254E1,5.955735683E0,3.211766243E0,7.089335442E0
2.466995269E1,6.867401123E0,3.991826296E0,6.988238335E0
2.468798010E1,6.757331371E0,4.462016106E0,6.542575359E0
2.470600940E1,5.992226124E0,4.612763882E0,7.350152969E0
2.472403820E1,5.543571949E0,4.629513741E0,8.248658180E0
2.474206842E1,5.209175110E0,4.819144726E0,8.473583221E0
2.476009607E1,4.182653904E0,4.949553490E0,7.792825222E0
2.477812609E1,3.652045488E0,5.303691387E0,6.923632145E0
2.479615405E1,3.569493294E0,5.784050465E0,7.575676441E0
2.481418475E1,3.364906788E0,6.018547058E0,8.105088234E0
2.483221142E1,3.377469063E0,5.924030781E0,7.866404533E0
2.485024029E1,3.126821041E0,5.950950146E0,6.687939167E0
2.486826599E1,2.389831543E0,5.922834396E0,6.537191391E0
2.488628668E1,1.864607096E0,5.776273727E0,9.345767021E0
2.490432763E1,2.892324448E0,5.596213818E0,1.050449181E1
2.492235760E1,3.750151396E0,5.099703312E0,1.019402313E1
2.494038861E1,3.666402578E0,4.317250252E0,9.228518486E0
2.495841534E1,2.920439959E0,3.675375462E0,8.608179092E0
2.497644232E1,1.066600680E0,3.537189960E0,8.779864311E0
2.499447149E1,4.163511395E-1,4.009174347E0,8.703293800E0
2.501250079E1,5.300102234E-1,4.539184570E0,8.099106789E0
2.503053088E1,8.787640929E-1,4.966901779E0,8.640482903E0
2.504855877E1,1.608574986E0,5.093721390E0,9.087342262E0
2.506658844E1,1.972284079E0,5.111069202E0,8.203194618E0
2.508461633E1,1.520638824E0,5.151747227E0,6.614359856E0
2.510264666E1,5.030909777E-1,5.103890896E0,6.430710793E0
2.512067413E1,-4.743770957E-1,5.409573555E0,8.656634331E0
2.513870294E1,-7.477570772E-1,5.438885689E0,1.071924686E1
2.515673168E1,-5.413761139E-1,4.995017052E0,1.007139015E1
2.517475836E1,-6.173482537E-1,3.741178274E0,8.783453941E0
2.519277649E1,-9.553344250E-1,3.330809116E0,8.714659691E0
2.521081970E1,-8.853443861E-1,3.128017426E0,9.159127235E0
2.522884759E1,-1.639083475E-1,3.002992392E0,9.343972206E0
2.524688116E1,5.108676553E-1,2.612364054E0,9.367900848E0
2.526490509E1,1.189232826E0,2.532204628E0,9.261420250E0
2.528293432E1,1.468594909E0,2.543570518E0,9.017352104E0
2.530096374E1,7.447660565E-1,2.782254457E0,9.104091644E0
2.531899347E1,2.201396823E-1,3.057429075E0,8.822337151E0
2.533701739E1,1.639083475E-1,3.323032379E0,8.072187424E0
2.535503588E1,-2.572284341E-1,3.795614958E0,8.252246857E0
2.537307885E1,-4.773681164E-1,4.122235298E0,9.717252731E0
2.539110516E1,-3.152543902E-1,3.800998688E0,9.570094109E0
2.540912066E1,6.939185411E-2,3.752544165E0,9.712467194E0
2.542714556E1,3.122633696E-1,3.763910055E0,8.289336205E0
2.544519451E1,5.916253924E-1,3.732803345E0,8.045268059E0
2.546322833E1,5.353940725E-1,3.890729666E0,9.319445610E0
2.548125518E1,1.064806104E0,4.460819721E0,1.068096161E1
2.549927282E1,1.383649707E0,4.832305431E0,9.585049629E0
2.551731012E1,1.408176184E0,5.093721390E0,7.235297680E0
2.553534020E1,1.141974568E0,5.855237007E0,7.409375191E0
2.555337011E1,1.311266780E0,6.530611038E0,8.699705124E0
2.557139678E1,1.105484009E0,6.756732941E0,8.889934540E0
2.558942578E1,5.551348329E-1,6.232106686E0,8.144570351E0
2.560745642E1,-4.875376225E-1,5.230112076E0,6.829115868E0
2.562548236E1,-8.285148144E-1,4.060619831E0,7.035496712E0
2.564350146E1,2.392822644E-3,3.329014540E0,9.671789169E0
2.566151928E1,5.898307562E-1,2.549552441E0,1.057089233E1
2.567957159E1,-6.400800496E-2,2.518445730E0,9.737591743E0
2.569760058E1,6.089733839E-1,2.933002472E0,7.547560692E0
2.571563354E1,1.983051777E0,3.275176048E0,8.058428764E0
2.573365704E1,1.345364571E0,2.979662418E0,8.925228119E0
2.575168707E1,-2.745763958E-1,2.097907305E0,9.376873970E0
2.576971502E1,-9.996016622E-1,1.357328653E0,9.725627899E0
2.578774127E1,-1.663609982E0,8.673982024E-1,1.053141022E1
2.580575799E1,-2.346760750E0,8.656035662E-1,1.086700439E1
2.582380316E1,-1.006181955E0,1.533201098E0,1.000678444E1
2.584183038E1,3.876372576E-1,1.991426587E0,8.803194046E0
2.585986279E1,5.096712112E-1,2.227717876E0,8.968897820E0
2.587788678E1,9.804590940E-1,2.481357098E0,9.605986595E0
2.589591858E1,7.986045480E-1,2.933600664E0,1.045902824E1
2.591394854E1,-2.093719877E-2,2.685943365E0,1.078205872E1
2.593198413E1,-9.260223508E-1,2.164906263E0,1.037109184E1
2.595000402E1,-1.883749604E0,1.660020709E0,9.865009308E0
2.596803424E1,-2.016551256E0,2.056631088E0,1.006899738E1
2.598605969E1,-1.412961721E0,2.164906263E0,9.608379364E0
2.600409063E1,-9.744769931E-1,2.036890268E0,9.025727272E0
2.602211944E1,-8.554341197E-1,2.219342947E0,8.413164139E0
2.604014972E1,-4.666004181E-1,2.571686029E0,8.415556908E0
2.605817767E1,-1.310070455E-1,2.708675146E0,8.920442581E0
2.607620764E1,-6.394818425E-1,2.595016241E0,9.175278664E0
2.609423523E1,-8.518448472E-1,2.219342947E0,9.602396965E0
2.611226165E1,-1.211964726E0,1.928615093E0,9.541978836E0
2.613027740E1,-1.689931035E0,1.715653777E0,9.443872452E0
2.614832214E1,-1.788634896E0,1.397408366E0,9.479166985E0
2.616634710E1,-1.543370605E0,1.140179992E0,9.880562782E0
2.618436969E1,-1.417747378E0,9.625129104E-1,9.738189697E0
2.620240918E1,-1.202991605E0,1.045065284E0,9.732208252E0
2.622043933E1,-4.821537733E-1,1.369890928E0,9.595218658E0
2.623847039E1,-5.802594870E-2,1.802393675E0,9.807581902E0
2.625649639E1,2.063809484E-1,2.080559254E0,9.743574142E0
2.627452386E1,3.170489892E-2,2.627917528E0,9.545567513E0
2.629255334E1,-9.810572863E-2,2.954537868E0,9.324830055E0
2.631058239E1,4.127619043E-2,3.134597778E0,9.175876617E0
2.632861218E1,-3.649054468E-2,3.084946632E0,8.718249321E0
2.634664025E1,-6.921239495E-1,2.775076151E0,8.377271652E0
2.636466998E1,-3.613162339E-1,2.482553482E0,8.983852386E0
2.638269787E1,2.362912297E-1,2.377867460E0,1.051525879E1
2.640072790E1,5.497509837E-1,2.585444927E0,1.129651546E1
2.641875549E1,4.516452849E-1,3.063411236E0,1.139043427E1
2.643678479E1,-9.092725813E-2,3.245863914E0,1.046441174E1
2.645481359E1,-1.806581169E-1,3.077768087E0,9.797411919E0
2.647284362E1,-2.691925466E-1,2.991028309E0,9.181859016E0
2.649087176E1,-8.865407705E-1,2.733799934E0,8.717052460E0
2.650890167E1,-1.499701619E0,2.385046005E0,8.481359482E0
2.652692913E1,-1.509871125E0,2.260619164E0,8.634500504E0
2.654495959E1,-1.786840320E0,2.207378864E0,8.415556908E0
2.656298687E1,-2.085943222E0,1.912463546E0,8.083553314E0
2.658101623E1,-2.124826431E0,1.821536183E0,8.160721779E0
2.659904467E1,-1.437488198E0,2.006381750E0,8.621339798E0
2.661707745E1,-5.575276613E-1,2.312064886E0,9.199805260E0
2.663511358E1,-7.716853023E-1,2.522633314E0,9.848857880E0
2.665313269E1,-7.657032609E-1,2.825325251E0,1.048235798E1
2.667116052E1,-7.280163169E-1,3.109472990E0,1.093460083E1
2.668918786E1,-8.392825127E-1,3.297309637E0,1.097228813E1
2.670721807E1,-9.774680734E-1,3.333800077E0,1.064806080E1
2.672524719E1,-1.118046403E0,3.063411236E0,9.436694145E0
2.674327624E1,-1.058824062E0,2.886940479E0,9.241679192E0
2.676130249E1,-1.058225870E0,2.659622431E0,8.779266357E0
2.677931927E1,-1.024128079E0,2.387438774E0,8.623134613E0
2.679736413E1,-1.107278705E0,2.251047850E0,8.380263329E0
2.681539196E1,-1.197607756E0,2.213959217E0,8.376075745E0
2.683342572E1,-1.104885817E0,2.354537487E0,8.733204842E0
2.685144928E1,-7.166503668E-1,2.577668190E0,8.950951576E0
2.686947857E1,-7.561319470E-1,2.757728100E0,9.379864693E0
2.688750744E1,-1.024726272E0,2.860619545E0,9.614361763E0
2.690553772E1,-1.050449133E0,2.983849764E0,1.002413273E1
2.692356567E1,-9.882357717E-1,2.967698336E0,1.017667484E1
2.694159582E1,-1.070189953E0,2.921636343E0,1.013420200E1
2.695962304E1,-1.763510346E0,2.931207657E0,1.008814049E1
2.697765295E1,-8.823533654E-1,2.854039192E0,9.690333366E0
2.699568011E1,-3.708875179E-1,2.810370207E0,9.245268822E0
2.701370788E1,-1.734796464E-1,2.694318295E0,8.977870941E0
2.703173889E1,-1.507478207E-1,2.627917528E0,8.911469460E0
2.704976861E1,-1.465603858E-1,2.608774900E0,8.906683922E0
2.706779730E1,-7.058826685E-1,2.697309256E0,8.826524734E0
2.708582678E1,-6.179464459E-1,2.876770973E0,8.954540253E0
2.710385467E1,-5.461617708E-1,2.885145903E0,9.173483849E0
2.712188470E1,-6.071787477E-1,2.880360365E0,9.312267303E0
2.713991223E1,-8.913264275E-1,2.960519791E0,9.326624870E0
2.715794146E1,-6.340979934E-1,2.950948477E0,9.655637741E0
2.717597009E1,-6.400800496E-2,2.924029350E0,9.764511108E0
2.719400030E1,-1.543370634E-1,2.886940479E0,9.778867722E0
2.721202435E1,-2.213360965E-1,2.864208698E0,9.717252731E0
2.723004296E1,-1.495514214E-1,2.953939438E0,9.588040352E0
2.724808624E1,-2.069791555E-1,2.989233732E0,9.358329773E0
2.726611200E1,-1.597209126E-1,2.989233732E0,9.253045082E0
2.728413189E1,-1.746760458E-1,2.961117983E0,9.114859581E0
2.730217279E1,-7.956135273E-2,2.974876642E0,8.995218277E0
2.732020123E1,-1.890329868E-1,2.985644341E0,9.034101486E0
2.733823516E1,-3.230310604E-2,2.978466034E0,9.062217712E0
2.735625958E1,2.069791555E-1,3.007778168E0,9.381061554E0
2.737428942E1,2.213360965E-1,3.011965513E0,9.495916367E0
2.739231713E1,1.836491376E-1,2.978466034E0,9.605986595E0
2.741034753E1,1.788634956E-1,2.997608662E0,9.534201622E0
2.742837481E1,2.512463629E-1,3.150151014E0,9.394820213E0
2.744639807E1,3.655036688E-1,3.201596737E0,9.246464729E0
2.746440911E1,4.695914388E-1,3.186043262E0,9.198608398E0
2.748246252E1,4.462614357E-1,3.152543783E0,9.351150513E0
2.750049115E1,3.607180119E-1,3.206382275E0,9.265607834E0
2.751852673E1,2.368894368E-1,3.223132133E0,9.041280746E0
2.753654852E1,2.703889608E-1,3.232105255E0,9.117850304E0
2.755457836E1,2.656033039E-1,3.198605776E0,9.184849739E0
2.757260577E1,3.320041299E-1,3.226123095E0,9.117252350E0
2.759063537E1,4.133601189E-1,3.253640652E0,9.150752068E0
2.760866412E1,5.228317380E-1,3.262015581E0,9.097511292E0
2.762669403E1,4.420739710E-1,3.272783279E0,9.131608963E0
2.764472229E1,4.713860750E-1,3.333800077E0,9.193224907E0
2.766274823E1,4.857429862E-1,3.333800077E0,9.121439934E0
2.768076464E1,4.707878530E-1,3.291327477E0,9.121439934E0
2.769881024E1,3.613162339E-1,3.278765202E0,9.026325226E0
2.771683380E1,5.742774606E-1,3.232703447E0,9.040681839E0
2.773485473E1,5.748756528E-1,3.280559778E0,9.025727272E0
2.775289526E1,3.888336718E-1,3.240479946E0,8.964710236E0
2.777092529E1,6.831508875E-1,3.198007345E0,9.031110764E0
2.778895752E1,4.073780477E-1,3.192025423E0,9.093324661E0
2.780698376E1,4.923232496E-1,3.133401155E0,9.069993973E0
2.782501117E1,3.738785386E-1,3.139981508E0,9.132207870E0
2.784304138E1,2.596212626E-1,3.107678413E0,9.156135559E0
2.786106866E1,3.409772217E-1,3.139981508E0,9.270393372E0
2.787909826E1,3.020938635E-1,3.053839922E0,9.376275063E0
2.789712670E1,2.638086975E-1,2.992224693E0,9.481559753E0
2.791515618E1,4.055834413E-1,2.923431158E0,9.538987160E0
2.793318316E1,2.297109663E-1,2.911466837E0,9.543772697E0
2.795121472E1,1.633101404E-1,2.916850805E0,9.549157143E0
2.796923876E1,2.201396823E-1,2.892324448E0,9.496515274E0
2.798725756E1,2.147558331E-1,2.854637384E0,9.391230583E0
2.800529992E1,2.333002090E-1,2.830709219E0,9.363115311E0
2.802332940E1,2.991028428E-1,2.820539713E0,9.291330338E0
2.804135803E1,2.039881349E-1,2.773879766E0,9.353543282E0
2.805937292E1,1.752742529E-1,2.735594511E0,9.444471359E0
2.807741607E1,2.129612118E-1,2.730210543E0,9.468399048E0
2.809544592E1,1.417747438E-1,2.721835852E0,9.449854851E0
2.811347754E1,9.032905847E-2,2.760719061E0,9.468399048E0
2.813150378E1,1.752742529E-1,2.735594511E0,9.516255379E0
2.814953131E1,1.842473447E-1,2.697907448E0,9.397212982E0
2.816756042E1,1.082752272E-1,2.688934565E0,9.401998520E0
2.818558947E1,4.187439755E-2,2.733201742E0,9.387641907E0
2.820361572E1,1.040877849E-1,2.746362209E0,9.497113228E0
2.822163244E1,9.930214286E-2,2.712264538E0,9.631111145E0
2.823967712E1,1.501496136E-1,2.684148788E0,9.306285858E0
2.825770520E1,4.486542568E-2,2.642872572E0,9.206384659E0
2.827573901E1,2.632104978E-2,2.638087034E0,9.359525681E0
2.829376281E1,-2.093719877E-2,2.609373093E0,9.493523598E0
2.831179181E1,-2.093719877E-2,2.604587555E0,9.507881165E0
2.832982074E1,1.256231871E-2,2.609373093E0,9.483952522E0
2.834785113E1,-1.136590727E-2,2.599801779E0,9.450452805E0
2.836587878E1,-4.007977992E-2,2.586043119E0,9.483952522E0
2.838390863E1,1.196411345E-2,2.595016241E0,9.450452805E0
2.840193646E1,1.136590727E-2,2.532802820E0,9.451051712E0
2.841996618E1,6.340979785E-2,2.513062000E0,9.412766457E0
2.843799395E1,-7.776673418E-3,2.528615236E0,9.417551994E0
2.845602313E1,-5.084748194E-2,2.466402054E0,9.527621269E0
2.847405267E1,-1.734796353E-2,2.475374937E0,9.565906525E0
2.849208233E1,1.196411322E-3,2.475374937E0,9.555737495E0
2.851011102E1,1.555334684E-2,2.480160713E0,9.465408325E0
2.852813989E1,-6.041877344E-2,2.499901533E0,9.503693581E0
2.854616784E1,-1.028913707E-1,2.496312141E0,9.498908043E0
2.856419403E1,-8.434699476E-2,2.471785784E0,9.498908043E0
2.858221099E1,-5.084748194E-2,2.467000246E0,9.484550476E0
2.860025543E1,1.196411322E-3,2.470589399E0,9.479764938E0
2.861828326E1,1.196411322E-3,2.447259426E0,9.484550476E0
2.863631707E1,-1.375873014E-2,2.423331022E0,9.494122505E0
2.865434167E1,-4.666004330E-2,2.423929453E0,9.508479118E0
2.867237121E1,-7.058826834E-2,2.400599241E0,9.484550476E0
2.869039917E1,-8.434699476E-2,2.443071842E0,9.532406807E0
2.870842950E1,-6.999006122E-2,2.457428932E0,9.489336014E0
2.872645684E1,-7.058826834E-2,2.404786825E0,9.527621269E0
2.874448577E1,-8.973085321E-3,2.408974171E0,9.537193298E0
2.876251495E1,-5.682953820E-2,2.380858421E0,9.494720459E0
2.878054498E1,-6.640082598E-2,2.371287346E0,9.547362328E0
2.879857293E1,-4.725824669E-2,2.385644197E0,9.522835732E0
2.881660260E1,-6.640082598E-2,2.376072884E0,9.485149384E0
2.883463043E1,-5.264209956E-2,2.352144718E0,9.513862610E0
2.885266058E1,-7.537391037E-2,2.390429735E0,9.527621269E0
2.887068829E1,-1.088734269E-1,2.381456852E0,9.523433685E0
2.888871716E1,-6.640082598E-2,2.385644197E0,9.489934921E0
2.890674615E1,-3.828516230E-2,2.356930256E0,9.489934921E0
2.892477600E1,-8.135596663E-2,2.343171597E0,9.523433685E0
2.894280462E1,-9.032905847E-2,2.395813704E0,9.489934921E0
2.896083410E1,-2.871387079E-2,2.390429735E0,9.466006279E0
2.897886200E1,-7.058826834E-2,2.371287346E0,9.642477036E0
2.899689184E1,-6.640082598E-2,2.381456852E0,9.470791817E0
2.901491546E1,-1.190429255E-1,2.382653236E0,9.322437286E0
2.903293341E1,-9.511470050E-2,2.367099762E0,9.499505997E0
2.905097747E1,-8.075776696E-2,2.356930256E0,9.585049629E0
2.906900793E1,-5.264209956E-2,2.333002090E0,9.513862610E0
2.908703930E1,-7.178468257E-2,2.314457655E0,9.432506561E0
2.910506530E1,-1.333998591E-1,2.348555326E0,9.533005714E0
2.912309307E1,-1.423729509E-1,2.367697954E0,9.566504478E0
2.914112347E1,-1.381855011E-1,2.338984251E0,9.528220177E0
2.915915094E1,-7.657032460E-2,2.319243431E0,9.533005714E0
2.917717980E1,-8.135596663E-2,2.333600283E0,9.504291534E0
2.919520886E1,-1.004985496E-1,2.319243431E0,9.513862610E0
2.921323901E1,-1.244267747E-1,2.300698996E0,9.528220177E0
2.923126678E1,-9.032905847E-2,2.333600283E0,9.552147865E0
2.924929669E1,-1.286142170E-1,2.315055847E0,9.547362328E0
2.926732428E1,-1.004985496E-1,2.309672117E0,9.556933403E0
2.928535473E1,-1.190429255E-1,2.324627161E0,9.523433685E0
2.930338238E1,-1.525424421E-1,2.310868502E0,9.504291534E0
2.932141131E1,-1.339980662E-1,2.300698996E0,9.513862610E0
2.933944030E1,-1.525424421E-1,2.315055847E0,9.504889488E0
2.935747021E1,-1.052841991E-1,2.295315027E0,9.523433685E0
2.937549823E1,-1.196411327E-1,2.300698996E0,9.504889488E0
2.939352819E1,-1.477568001E-1,2.310270309E0,9.533005714E0
2.941155609E1,-1.663011760E-1,2.334796667E0,9.537791252E0
2.942958636E1,-1.758724600E-1,2.334796667E0,9.518648148E0
2.944761358E1,-1.238285750E-1,2.319841623E0,9.528220177E0
2.946564117E1,-1.148554832E-1,2.310270309E0,9.499505997E0
2.948366186E1,-1.286142170E-1,2.319841623E0,9.528220177E0
2.950168682E1,-1.238285750E-1,2.319841623E0,9.509077072E0
2.951972754E1,-1.292124242E-1,2.291127682E0,9.518648148E0
2.953775256E1,-1.333998591E-1,2.310270309E0,9.542576790E0
2.955579089E1,-1.627119333E-1,2.282154560E0,9.524032593E0
2.957381726E1,-1.148554832E-1,2.276770830E0,9.561718941E0
2.959184686E1,-1.052841991E-1,2.300100803E0,9.533005714E0
2.960987384E1,-1.674975902E-1,2.277369022E0,9.519247055E0
2.962790264E1,-1.238285750E-1,2.324627161E0,9.528220177E0
2.964593280E1,-1.381855011E-1,2.329412937E0,9.523433685E0
2.966396136E1,-1.381855011E-1,2.310270309E0,9.537791252E0
2.968199096E1,-1.716850251E-1,2.286940336E0,9.519247055E0
2.970001892E1,-7.178468257E-2,2.299502611E0,9.580862045E0
2.971804449E1,-1.716850251E-1,2.315654039E0,9.528220177E0
2.973606060E1,-2.093719840E-1,2.349751949E0,9.518648148E0
2.975410522E1,-9.451649338E-2,2.386242390E0,9.556335449E0
2.977213037E1,-1.094716340E-1,2.333600283E0,9.643074989E0
2.979015295E1,-9.032905847E-2,2.299502611E0,9.647860527E0
2.980819250E1,-7.716853172E-2,2.329412937E0,9.370891571E0
2.982622210E1,-8.135596663E-2,2.334198475E0,9.394221306E0
2.984425396E1,-6.699903309E-2,2.338385820E0,9.518648148E0
2.986228009E1,-9.511470050E-2,2.338385820E0,9.499505997E0
2.988030749E1,-4.785645381E-2,2.309073925E0,9.523433685E0
2.989833679E1,-1.136590764E-1,2.391027927E0,9.513862610E0
2.991636578E1,-8.973085135E-2,2.395215511E0,9.599406242E0
2.993439562E1,-6.161518395E-2,2.390429735E0,9.509077072E0
2.995242370E1,-8.015955985E-2,2.419143677E0,9.537193298E0
2.997045343E1,-1.854437590E-2,2.428116798E0,9.522835732E0
2.998848138E1,3.349951655E-2,2.384447813E0,9.513264656E0
3.000651178E1,9.571290575E-3,2.370090723E0,9.522835732E0
3.002453967E1,-1.375873014E-2,2.428116798E0,9.474979401E0
3.004256829E1,1.555334684E-2,2.451446772E0,9.527621269E0
3.006059723E1,2.512463741E-2,2.475374937E0,9.513264656E0
3.007862683E1,5.324030295E-2,2.455634356E0,9.474979401E0
3.009665490E1,4.845465720E-2,2.450848579E0,9.494122505E0
3.011468487E1,2.512463741E-2,2.465803623E0,9.498908043E0
3.013271270E1,3.409772366E-2,2.465803623E0,9.451051712E0
3.015074261E1,1.058823988E-1,2.498106956E0,9.493523598E0
3.016877032E1,7.716853172E-2,2.493919373E0,9.464810371E0
3.018679937E1,6.819544733E-2,2.541775942E0,9.460023880E0
3.020482824E1,8.793623000E-2,2.555534601E0,9.464810371E0
3.022285821E1,1.160518974E-1,2.560320139E0,9.455238342E0
3.024088922E1,1.351944804E-1,2.564507723E0,9.455238342E0
3.025892767E1,1.501496136E-1,2.593221426E0,9.454640388E0
3.027694421E1,1.262213886E-1,2.593221426E0,9.450452805E0
3.029497400E1,1.692921966E-1,2.611765862E0,9.449854851E0
3.031299865E1,2.213360965E-1,2.596810818E0,9.430712700E0
3.033102740E1,1.830509305E-1,2.602194548E0,9.435498238E0
3.040314632E1,2.165504545E-1,2.649452925E0,9.425926208E0
3.042117486E1,1.980060786E-1,2.663809776E0,9.435498238E0
3.043920514E1,2.123630047E-1,2.687737942E0,9.430712700E0
3.045723303E1,2.416750938E-1,2.706282377E0,9.458827972E0
3.047526226E1,2.560320199E-1,2.720639229E0,9.439684868E0
3.049329126E1,2.368894368E-1,2.715853691E0,9.430113792E0
3.051132135E1,2.847459018E-1,2.739183664E0,9.449256897E0
3.052934893E1,3.032902777E-1,2.743969440E0,9.410971642E0
3.054737872E1,2.470589429E-1,2.802593470E0,9.267401695E0
3.056540667E1,2.997010350E-1,2.858824968E0,9.248259544E0
3.058343737E1,3.996013701E-1,2.880958557E0,9.309874535E0
3.060146429E1,4.187439680E-1,2.842075109E0,9.458230019E0
3.061949377E1,4.085744619E-1,2.828316450E0,9.305088997E0
3.063752215E1,3.326023519E-1,2.834896564E0,9.186046600E0
3.065555236E1,2.901297510E-1,2.839682341E0,9.329017639E0
3.067358044E1,3.002992272E-1,2.854039192E0,9.367302895E0
3.069161047E1,3.236292601E-1,2.877369165E0,9.290732384E0
3.070963806E1,3.188436031E-1,2.877967358E0,9.171689034E0
3.072766809E1,3.044866920E-1,2.873181820E0,9.229117393E0
3.074569555E1,3.050848842E-1,2.882753134E0,9.281160355E0
3.076372467E1,3.278166950E-1,2.839682341E0,9.272188187E0
3.078175354E1,4.229314029E-1,2.833101988E0,9.314660072E0
3.079978375E1,4.181457460E-1,2.833101988E0,9.314660072E0
3.081780798E1,3.607180119E-1,2.800798893E0,9.300901413E0
3.083582684E1,3.469592929E-1,2.809772015E0,9.381659508E0
3.085386944E1,3.236292601E-1,2.819941521E0,9.424730301E0
3.087189935E1,2.662015259E-1,2.810968399E0,9.387042999E0
3.088993090E1,2.757728100E-1,2.820539713E0,9.424730301E0
3.090795660E1,2.524427772E-1,2.834896564E0,9.382257462E0
3.092598492E1,2.039881349E-1,2.778665304E0,9.339186668E0
3.094401477E1,2.512463629E-1,2.744567633E0,9.348757744E0
3.096204327E1,2.650051117E-1,2.739781857E0,9.334401131E0
3.098007312E1,2.464607358E-1,2.725425005E0,9.377471924E0
3.099810076E1,2.129612118E-1,2.702095032E0,9.444471359E0
3.101613067E1,2.081755698E-1,2.697309256E0,9.458827972E0
3.103415820E1,1.890329868E-1,2.721237659E0,9.449256897E0
3.105218731E1,2.081755698E-1,2.716451883E0,9.420542717E0
3.107021612E1,2.027917206E-1,2.697309256E0,9.401998520E0
3.108824633E1,1.938186288E-1,2.687737942E0,9.435498238E0
3.110627502E1,1.884347796E-1,2.673381090E0,9.425926208E0
3.112430407E1,1.597209126E-1,2.626122952E0,9.454640388E0
3.114233197E1,1.262213886E-1,2.621935368E0,9.483354568E0
3.116036193E1,1.166501045E-1,2.602792740E0,9.468997002E0
3.117838928E1,1.214357466E-1,2.602792740E0,9.436096191E0
3.119641882E1,1.166501045E-1,2.588435888E0,9.445667267E0
3.121444757E1,8.315058798E-2,2.574677229E0,9.450452805E0
3.123247772E1,1.070788130E-1,2.588435888E0,9.503094673E0
3.125050567E1,1.166501045E-1,2.583650351E0,9.493523598E0
3.126853527E1,1.064806059E-1,2.564507723E0,9.483952522E0
3.128656378E1,5.443671346E-2,2.570489645E0,9.483952522E0
3.130459503E1,6.879365444E-2,2.555534601E0,9.479166985E0
3.132262078E1,9.690931439E-2,2.550748825E0,9.479166985E0
3.134065026E1,4.486542568E-2,2.560918331E0,9.436096191E0
3.135867859E1,7.298108935E-2,2.560918331E0,9.393025398E0
3.137670886E1,9.690931439E-2,2.560320139E0,9.464810371E0
3.139473687E1,4.965107143E-2,2.531606436E0,9.613164902E0
3.141276666E1,4.426721856E-2,2.518445730E0,9.407979965E0
3.143079455E1,2.033899166E-2,2.523829699E0,9.307481766E0
3.144882458E1,1.196411322E-3,2.509472847E0,9.412766457E0
3.146685217E1,1.136590727E-2,2.508874655E0,9.503094673E0
3.148488146E1,1.495514158E-2,2.461018085E0,9.431908607E0
3.150291150E1,-3.708875179E-2,2.437688112E0,9.474979401E0
3.152094134E1,-7.956135273E-2,2.452643156E0,9.513264656E0
3.153895300E1,-9.870393574E-2,2.462214470E0,9.541978836E0
3.155699780E1,-7.477571070E-2,2.485544443E0,9.556335449E0
3.157502331E1,-7.477571070E-2,2.452643156E0,9.518050194E0
3.159305987E1,-2.811566554E-2,2.408974171E0,9.508479118E0
3.161108355E1,-4.247260094E-2,2.409572363E0,9.489336014E0
3.162911303E1,-8.973085135E-2,2.400599241E0,9.494720459E0
3.164714160E1,-8.015955985E-2,2.414358139E0,9.542576790E0
3.166517126E1,-8.015955985E-2,2.423929453E0,9.565906525E0
3.168319995E1,-1.040877849E-1,2.400599241E0,9.528220177E0
3.170122979E1,-1.232303679E-1,2.395813704E0,9.523433685E0
3.171925732E1,-1.040877849E-1,2.410170555E0,9.509077072E0
3.173728363E1,-9.990034252E-2,2.386242390E0,9.446864128E0
3.175529968E1,-6.221338734E-2,2.357528448E0,9.394221306E0
3.177334466E1,-1.004985496E-1,2.347957134E0,9.456435204E0
3.179137322E1,-1.758724600E-1,2.367697954E0,9.542576790E0
3.180940728E1,-1.854437590E-1,2.372483730E0,9.576076508E0
3.182743121E1,-1.806581169E-1,2.377269268E0,9.566504478E0
3.184546106E1,-1.998006850E-1,2.363510609E0,9.561718941E0
3.186348889E1,-1.950150430E-1,2.353939295E0,9.537791252E0
3.188151922E1,-1.764706671E-1,2.344367981E0,9.519247055E0
3.189954663E1,-1.806581169E-1,2.349153519E0,9.514460564E0
3.191757531E1,-1.854437590E-1,2.353939295E0,9.528220177E0
3.193560455E1,-1.950150430E-1,2.344367981E0,9.537791252E0
3.195363415E1,-1.716850251E-1,2.329412937E0,9.552147865E0
3.197166119E1,-1.573280841E-1,2.315055847E0,9.524032593E0
3.198969293E1,-1.668993831E-1,2.315654039E0,9.524032593E0
3.200771734E1,-1.812563092E-1,2.315654039E0,9.528818130E0
3.202573584E1,-1.764706671E-1,2.334796667E0,9.524032593E0
3.204377764E1,-1.621137410E-1,2.339582443E0,9.495318413E0
3.206180706E1,-1.668993831E-1,2.320439816E0,9.504889488E0
3.207983978E1,-1.764706671E-1,2.310868502E0,9.528818130E0
3.209786608E1,-1.764706671E-1,2.310868502E0,9.533603668E0
3.211589392E1,-1.764706671E-1,2.320439816E0,9.514460564E0
3.213392395E1,-1.716850251E-1,2.325225353E0,9.519247055E0
3.215195178E1,-1.812563092E-1,2.320439816E0,9.519247055E0
3.216998187E1,-1.854437590E-1,2.334796667E0,9.519247055E0
3.218800970E1,-2.476571500E-1,2.330609322E0,9.500103951E0
3.220603991E1,-2.285145670E-1,2.330609322E0,9.524032593E0
3.222406750E1,-1.956132501E-1,2.334796667E0,9.509675026E0
3.224209759E1,-2.428714931E-1,2.354537487E0,9.495318413E0
3.226012554E1,-2.422732860E-1,2.368894339E0,9.519247055E0
3.227815539E1,-2.093719840E-1,2.325225353E0,9.571888924E0
3.229618328E1,-1.908276081E-1,2.295913219E0,9.671789169E0
3.231421350E1,-1.722832322E-1,2.306082726E0,9.433105469E0
3.233224108E1,-1.914258152E-1,2.325823545E0,9.352347374E0
3.235027014E1,-2.243271172E-1,2.321038008E0,9.509675026E0
3.236829895E1,-2.195414752E-1,2.306082726E0,9.562317848E0
3.238632922E1,-2.057827413E-1,2.287538528E0,9.471389771E0
3.240435803E1,-2.530409992E-1,2.307279348E0,9.495318413E0
3.242238891E1,-2.859423161E-1,2.312064886E0,9.557532310E0
3.244041125E1,-2.859423161E-1,2.307279348E0,9.581459999E0
3.245844824E1,-2.476571500E-1,2.306680918E0,9.543174744E0
3.247648498E1,-2.099701911E-1,2.297109842E0,9.524032593E0
3.249450250E1,-2.147558331E-1,2.282752752E0,9.543174744E0
3.251253064E1,-2.243271172E-1,2.287538528E0,9.571888924E0
3.253055737E1,-2.386840582E-1,2.292324066E0,9.576674461E0
3.254858886E1,-2.237289101E-1,2.310868502E0,9.591031075E0
3.256661877E1,-2.428714931E-1,2.297109842E0,9.600603104E0
3.258464636E1,-2.333002090E-1,2.320439816E0,9.581459999E0
3.260267651E1,-2.333002090E-1,2.316252232E0,9.571888924E0
3.262070446E1,-2.003988922E-1,2.301297188E0,9.547960281E0
3.263873358E1,-1.770688742E-1,2.286940336E0,9.533603668E0
3.265675702E1,-1.812563092E-1,2.310868502E0,9.528818130E0
3.267477081E1,-1.764706671E-1,2.315654039E0,9.509675026E0
3.269282043E1,-1.621137410E-1,2.353341103E0,9.519247055E0
3.271084460E1,-1.764706671E-1,2.358724833E0,9.485747337E0
3.272886096E1,-1.615155339E-1,2.372483730E0,9.533005714E0
3.274690814E1,-1.519442350E-1,2.386840582E0,9.518648148E0
3.276493603E1,-1.471585929E-1,2.377269268E0,9.513862610E0
3.278297113E1,-1.232303679E-1,2.400599241E0,9.533005714E0
3.280099664E1,-1.088734269E-1,2.400599241E0,9.499505997E0
3.281903430E1,-9.990034252E-2,2.405385017E0,9.489934921E0
3.283705206E1,-8.973085135E-2,2.419143677E0,9.513862610E0
3.285508197E1,-9.511470050E-2,2.400001049E0,9.489934921E0
3.287310748E1,-9.930214286E-2,2.404786825E0,9.504291534E0
3.289114007E1,-8.015955985E-2,2.423929453E0,9.537791252E0
3.290916766E1,-8.015955985E-2,2.423929453E0,9.494720459E0
3.292719690E1,-7.058826834E-2,2.452044964E0,9.518648148E0
3.294522570E1,-5.623133108E-2,2.466402054E0,9.527621269E0
3.296325579E1,-7.058826834E-2,2.447857618E0,9.499505997E0
3.298128411E1,-2.811566554E-2,2.452044964E0,9.470791817E0
3.299931390E1,-3.230310604E-2,2.489732027E0,9.498908043E0
3.301734179E1,-3.589233849E-3,2.499303341E0,9.518050194E0
3.303537194E1,-2.273181453E-2,2.494517565E0,9.479764938E0
3.305339929E1,1.076770201E-2,2.517847538E0,9.484550476E0
3.307142865E1,3.050848842E-2,2.551347256E0,9.493523598E0
3.308945788E1,2.093719877E-2,2.546561480E0,9.451051712E0
3.310748876E1,1.794616925E-3,2.561516523E0,9.446265221E0
3.312551605E1,1.674975827E-2,2.584846735E0,9.464810371E0
3.314354565E1,6.879365444E-2,2.574677229E0,9.488738060E0
3.316157373E1,3.529413417E-2,2.594418049E0,9.398408890E0
3.317960394E1,6.400800496E-2,2.622533560E0,9.369096756E0
3.319763159E1,1.268195957E-1,2.659622431E0,9.468997002E0
3.321566076E1,1.316052526E-1,2.626122952E0,9.598209381E0
3.323368957E1,1.501496136E-1,2.621337175E0,9.440881729E0
3.325171960E1,1.070788130E-1,2.646461725E0,9.259027481E0
3.326974768E1,6.939185411E-2,2.665604353E0,9.369096756E0
3.328777752E1,6.999006122E-2,2.674577475E0,9.478569031E0
3.330580566E1,1.124626622E-1,2.660220623E0,9.436096191E0
3.332383593E1,1.310070455E-1,2.660220623E0,9.397810936E0
3.334186346E1,1.028913707E-1,2.693720102E0,9.407382011E0
3.335989245E1,9.391828626E-2,2.703291416E0,9.430712700E0
3.337792120E1,1.226321608E-1,2.726621389E0,9.445069313E0
3.339595129E1,1.938186288E-1,2.730210543E0,9.440283775E0
3.341397967E1,2.225325108E-1,2.739781857E0,9.440283775E0
3.343200952E1,1.842473447E-1,2.730808735E0,9.421140671E0
3.345003766E1,1.986042857E-1,2.745165825E0,9.401998520E0
3.346806781E1,2.225325108E-1,2.744567633E0,9.421140671E0
3.348609515E1,2.512463629E-1,2.763111830E0,9.420542717E0
3.350412445E1,2.279163599E-1,2.787638426E0,9.382257462E0
3.352215356E1,1.944168359E-1,2.802593470E0,9.363713264E0
3.354018408E1,2.087737769E-1,2.801995277E0,9.358927727E0
3.355821191E1,2.321037948E-1,2.792423964E0,9.354142189E0
3.357624163E1,2.368894368E-1,2.792423964E0,9.349356651E0
3.359426940E1,2.470589429E-1,2.806182861E0,9.382257462E0
3.361229974E1,2.566302419E-1,2.815753937E0,9.382257462E0
3.363032733E1,2.566302419E-1,2.839682341E0,9.363115311E0
3.364835668E1,2.566302419E-1,2.854039192E0,9.315258980E0
3.366638562E1,2.757728100E-1,2.858824968E0,9.272188187E0
3.368441552E1,2.991028428E-1,2.858824968E0,9.214759827E0
3.370244403E1,2.991028428E-1,2.849253654E0,9.209974289E0
3.372047363E1,3.230310678E-1,2.829512835E0,9.276973724E0
3.373850195E1,3.134597540E-1,2.815155745E0,9.339186668E0
3.375653161E1,2.656033039E-1,2.801397085E0,9.387042999E0
3.377455371E1,2.231307179E-1,2.782852650E0,9.401400566E0
3.379256628E1,2.087737769E-1,2.797209740E0,9.396614075E0
3.381061773E1,1.800599098E-1,2.793022156E0,9.368498802E0
3.382864819E1,1.890329868E-1,2.778665304E0,9.334999084E0
3.384668164E1,1.890329868E-1,2.749951363E0,9.339784622E0
3.386470605E1,1.938186288E-1,2.735594511E0,9.373284340E0
3.388273376E1,2.129612118E-1,2.725425005E0,9.416355133E0
3.390076385E1,1.938186288E-1,2.702095032E0,9.440283775E0
3.391879138E1,1.274178028E-1,2.707478762E0,9.445069313E0
3.393681695E1,8.434699476E-2,2.722434044E0,9.464211464E0
3.395483471E1,1.274178028E-1,2.702693224E0,9.483354568E0
3.397288012E1,1.172483116E-1,2.693121910E0,9.449854851E0
3.399090838E1,6.520441920E-2,2.689532757E0,9.388239861E0
3.400894250E1,9.332008660E-2,2.688934565E0,9.402596474E0
3.402696600E1,9.810572863E-2,2.654836655E0,9.522237778E0
3.404499609E1,8.374879509E-2,2.617149830E0,9.550951958E0
3.406302374E1,6.819544733E-2,2.608176708E0,9.326624870E0
3.408105078E1,4.486542568E-2,2.613560438E0,9.288339615E0
3.409907250E1,3.529413417E-2,2.593819857E0,9.441479683E0
3.411711224E1,6.580262445E-3,2.560918331E0,9.513264656E0
3.413514032E1,6.580262445E-3,2.536990166E0,9.484550476E0
3.415317254E1,-2.691925503E-2,2.528017044E0,9.460622787E0
3.417119818E1,-6.520441920E-2,2.533401012E0,9.498908043E0
3.418922833E1,-7.417750359E-2,2.552543640E0,9.508479118E0
3.420725634E1,-5.084748194E-2,2.533401012E0,9.474979401E0
3.422528534E1,-1.794617064E-2,2.513660192E0,9.484550476E0
3.424330786E1,-1.316052489E-2,2.508874655E0,9.475577354E0
3.426131903E1,-6.101697683E-2,2.490330219E0,9.489934921E0
3.427937286E1,-7.537391037E-2,2.480758905E0,9.513862610E0
3.429740289E1,-8.015955985E-2,2.456830740E0,9.561718941E0
3.431543701E1,-7.058826834E-2,2.466402054E0,9.542576790E0
3.433346069E1,-1.034895778E-1,2.476571321E0,9.499505997E0
3.435148840E1,-1.040877849E-1,2.467000246E0,9.475577354E0
3.436951751E1,-1.280160099E-1,2.443670034E0,9.475577354E0
3.438755096E1,-1.046859920E-1,2.423929453E0,9.470791817E0
3.440559423E1,-1.142572835E-1,2.405385017E0,9.476176262E0
3.442360528E1,-1.232303679E-1,2.410170555E0,9.504291534E0
3.444163500E1,-1.238285750E-1,2.395813704E0,9.518648148E0
3.445965844E1,-1.286142170E-1,2.391027927E0,9.519247055E0
3.447769281E1,-1.519442350E-1,2.386242390E0,9.533603668E0
3.449572064E1,-1.758724600E-1,2.386840582E0,9.543174744E0
3.451375000E1,-1.710868180E-1,2.382055044E0,9.514460564E0
3.453177905E1,-1.758724600E-1,2.382055044E0,9.514460564E0
3.454980908E1,-1.710868180E-1,2.377269268E0,9.514460564E0
3.456783740E1,-1.764706671E-1,2.362912416E0,9.471389771E0
3.458586718E1,-1.525424421E-1,2.377269268E0,9.409176826E0
3.460389538E1,-1.292124242E-1,2.367697954E0,9.318249702E0
3.462192578E1,-1.339980662E-1,2.362912416E0,9.328418732E0
3.463995312E1,-1.244267747E-1,2.377269268E0,9.370891571E0
3.465798242E1,-1.328016520E-1,2.395813704E0,9.552147865E0
3.467601141E1,-1.567298770E-1,2.304288149E0,9.844072342E0
3.469404174E1,-2.614158690E-1,2.233101845E0,1.004985523E1
3.471206994E1,-3.900300860E-1,2.182254314E0,1.017428207E1
3.473009661E1,-4.145565331E-1,2.169093609E0,9.931410789E0
3.474811010E1,-2.721835673E-1,2.249253273E0,9.663414001E0
3.476614337E1,-5.324030295E-2,2.395215511E0,9.323035240E0
3.478418573E1,1.435693540E-2,2.519043922E0,9.179466248E0
3.480221868E1,1.393819153E-1,2.617748022E0,9.140582085E0
3.482024804E1,2.620140910E-1,2.674577475E0,8.757730484E0
3.483827410E1,3.667000830E-1,2.648854733E0,8.839086533E0
3.485630224E1,3.343969584E-1,2.609971285E0,9.263813019E0
3.487433215E1,1.974078715E-1,2.629712105E0,9.546165466E0
3.489236016E1,2.823530734E-1,2.551347256E0,9.727422714E0
3.491038824E1,3.122633696E-1,2.602792740E0,9.937392235E0
3.492840857E1,3.230310678E-1,2.673979282E0,9.994221687E0
3.494644805E1,3.756731451E-1,2.885744095E0,9.372686386E0
3.496447662E1,5.964110494E-1,3.155534744E0,9.031708717E0
3.498250952E1,7.992027402E-1,3.381656647E0,9.077771187E0
3.500053485E1,8.817551732E-1,3.620340586E0,8.857032776E0
3.501856500E1,7.782655358E-1,3.736392498E0,8.770891190E0
3.503659289E1,5.730810165E-1,3.638286829E0,8.834300995E0
3.505462280E1,6.520441771E-1,3.470191002E0,8.915657043E0
3.507265057E1,7.651050687E-1,3.320041418E0,9.092725754E0
3.509067993E1,8.793623447E-1,3.299104214E0,9.278767586E0
3.510870928E1,1.022333503E0,3.257827997E0,9.617352486E0
3.512673938E1,1.148554921E0,3.103491068E0,9.512666702E0
3.514476794E1,9.397810698E-1,2.927618504E0,8.855237961E0
3.516279766E1,8.703892231E-1,2.825325251E0,8.316255569E0
3.518082580E1,8.177471161E-1,2.865405083E0,8.044071198E0
3.519885583E1,4.528416991E-1,2.965903759E0,7.949554920E0
3.521687921E1,3.589234129E-2,2.888136864E0,8.547162056E0
3.523489740E1,-2.081755698E-1,2.255833626E0,8.904291153E0
3.525294165E1,-1.674975827E-2,1.812563181E0,9.454640388E0
3.527097222E1,4.570291340E-1,1.917847395E0,1.012104130E1
3.528900396E1,7.692924738E-1,2.282154560E0,9.923035622E0
3.530703057E1,7.310073376E-1,3.191427231E0,9.288937569E0
3.532505816E1,6.089733839E-1,3.775874138E0,9.053244591E0
3.534308874E1,1.130010486E0,4.417150497E0,9.196813583E0
3.536111273E1,1.913659930E0,4.812564373E0,9.045467377E0
3.537912799E1,2.327618122E0,5.216951370E0,9.199805260E0
3.539715905E1,2.063211441E0,5.382654667E0,9.119047165E0
3.541520025E1,2.091326952E0,5.440680504E0,8.855836868E0
3.543321606E1,2.051247120E0,5.365904808E0,8.560322762E0
3.545126654E1,2.127219439E0,5.312066078E0,8.708678246E0
3.546929040E1,2.586043119E0,5.433502197E0,8.945567131E0
3.548732611E1,3.014358282E0,5.586642742E0,8.614161491E0
3.550534869E1,3.553939819E0,5.610570908E0,7.925626755E0
3.552337829E1,3.990629911E0,5.581258774E0,7.857431412E0
3.554140722E1,3.996612072E0,5.318646431E0,7.853842258E0
3.555943731E1,4.234099865E0,4.943571568E0,7.792825222E0
3.557746478E1,4.770689964E0,4.637888432E0,7.344171047E0
3.559549218E1,5.119443893E0,4.761716843E0,7.333403111E0
3.561352349E1,4.991427898E0,4.922634602E0,6.951149940E0
3.563155371E1,4.928616524E0,4.968696117E0,6.368497372E0
3.564958209E1,5.429912567E0,4.988437176E0,5.617749214E0
3.566761065E1,5.592026711E0,5.009972572E0,5.722435474E0
3.568563995E1,5.276772022E0,4.822733879E0,5.876772404E0
3.570367022E1,5.287539959E0,4.681557655E0,5.294718266E0
3.572169836E1,5.968895912E0,4.747360229E0,5.565107346E0
3.573972833E1,7.038487911E0,4.886742115E0,5.328217983E0
3.575775634E1,6.978068829E0,4.795216560E0,4.555335999E0
3.577578643E1,5.644668579E0,4.551148891E0,4.420739651E0
3.579381414E1,5.944967747E0,4.473381996E0,5.065007210E0
3.581184326E1,6.751348972E0,4.670789719E0,5.429912567E0
3.582987262E1,7.524828911E0,4.864608288E0,4.448855400E0
3.584790295E1,8.405985832E0,5.275575638E0,3.680759430E0
3.586593426E1,7.981858253E0,5.568098068E0,3.537189960E0
3.588397210E1,7.654041290E0,5.741578102E0,2.940778971E0
3.590198950E1,7.419544697E0,5.925227165E0,3.150749207E0
3.592001898E1,7.352545738E0,5.950351715E0,2.964108944E0
3.593804419E1,7.302296638E0,5.775675774E0,2.769692183E0
3.595607641E1,7.412964344E0,5.541179180E0,2.483749866E0
3.597410583E1,7.272386074E0,5.357530117E0,2.408375978E0
3.599213586E1,7.293323517E0,5.234897614E0,1.984248161E0
3.601016412E1,7.876574039E0,5.189434052E0,1.734796405E0
3.602819378E1,8.144570351E0,4.855037212E0,2.179263115E0
3.604622174E1,7.864609718E0,4.433900356E0,2.277369022E0
3.606425225E1,7.562515736E0,3.890729666E0,1.980060697E0
3.608228015E1,7.929215908E0,3.609572887E0,1.880160451E0
3.610030969E1,8.270193100E0,3.480360508E0,1.975275040E0
3.611833844E1,8.511270523E0,3.396611691E0,1.879562140E0
3.613636871E1,8.666803360E0,3.371487141E0,1.635494232E0
3.615439697E1,9.095118523E0,3.486342669E0,1.357328653E0
3.617242681E1,9.626923561E0,3.421138287E0,1.542174220E0
3.619045489E1,9.844072342E0,3.230908871E0,1.862812400E0
3.620848510E1,9.898509026E0,3.044866800E0,1.710269928E0
3.622651275E1,9.648459435E0,2.665604353E0,7.244270444E-1
3.624454223E1,1.000618649E1,2.171486616E0,6.699903309E-2
3.626257110E1,1.040219784E1,1.942373753E0,-5.682953820E-2
3.628060162E1,9.357132912E0,1.753939033E0,-7.794619799E-1
3.629862976E1,8.653044701E0,1.871785522E0,-1.637288928E0
3.631666003E1,9.062217712E0,2.247458696E0,-2.847458839E0
3.633468780E1,9.537791252E0,2.351546526E0,-3.030509949E0
3.635271582E1,9.470193863E0,2.020140409E0,-2.155334949E0
3.637073657E1,9.437891006E0,1.363310695E0,-2.414956331E0
3.638877539E1,1.019820976E1,8.410771489E-1,-3.269193888E0
3.640680505E1,1.069531918E1,9.284151793E-1,-4.197010994E0
3.642483709E1,1.088973618E1,1.549352646E0,-5.130809784E0
3.644286291E1,1.032263660E1,2.147558212E0,-4.907679081E0
3.646089270E1,9.375677109E0,2.046461582E0,-5.029115200E0
3.647892065E1,8.740383148E0,1.338784218E0,-5.009972572E0
3.649695098E1,8.790632248E0,6.017948985E-1,-5.813961029E0
3.651497491E1,9.195018768E0,-1.663011760E-1,-7.191030025E0
3.653299273E1,9.497711182E0,-6.562315822E-1,-7.428517818E0
3.655103717E1,9.965508461E0,-9.110672474E-1,-7.170691490E0
3.656906744E1,9.601201057E0,-1.207179070E0,-7.063612461E0
3.658709960E1,9.335597992E0,-1.643270969E0,-6.879364967E0
3.660512554E1,9.238089561E0,-1.818545222E0,-6.988238335E0
3.662315368E1,8.947361946E0,-1.760519266E0,-7.450651646E0
3.664117797E1,8.810971260E0,-1.663609982E0,-7.355536938E0
3.665918707E1,8.803792953E0,-1.521237016E0,-7.107879639E0
3.667724102E1,8.920442581E0,-1.375872970E0,-6.860820770E0
3.669527008E1,8.863015175E0,-1.456630826E0,-6.626324177E0
3.671330676E1,8.955737114E0,-1.711466432E0,-6.391229153E0
3.673132873E1,9.030512810E0,-1.899302959E0,-6.175875187E0
3.674935876E1,9.017950058E0,-2.171486616E0,-6.165107727E0
3.676738678E1,8.844470978E0,-2.659622431E0,-6.444469452E0
3.678541711E1,8.761918068E0,-2.737987280E0,-6.758527756E0
3.680344488E1,8.373682976E0,-2.825325251E0,-7.573882103E0
3.682147424E1,7.931010723E0,-2.311466694E0,-8.171489716E0
3.683950341E1,7.791628838E0,-1.941177368E0,-8.617152214E0
3.685753320E1,8.726624489E0,-1.754537225E0,-8.137989998E0
3.687556158E1,9.777671814E0,-1.606780410E0,-6.795018196E0
3.694767724E1,6.968497753E0,-1.808973908E0,-6.467201233E0
3.696570648E1,6.994220734E0,-1.651645780E0,-6.544369698E0
3.698373614E1,8.037490845E0,-1.287936807E0,-5.478965759E0
3.700176837E1,8.715856552E0,-9.008977413E-1,-4.260420799E0
3.701980554E1,8.320442200E0,-7.692924738E-1,-3.496512175E0
3.703783648E1,8.247461319E0,-4.235295951E-1,-3.989433527E0
3.705585266E1,8.662017822E0,-2.709871531E-1,-4.100699902E0
3.707388116E1,9.127422333E0,-4.546362907E-2,-3.496512175E0
3.709190777E1,9.941579819E0,3.613162339E-1,-2.937189817E0
3.710994030E1,8.461020470E0,-1.172483116E-1,-3.656831264E0
3.712796923E1,7.019943237E0,-8.973084688E-1,-4.184448719E0
3.714599554E1,6.320042610E0,-1.403390527E0,-4.214358807E0
3.716400878E1,6.294918060E0,-2.005185366E0,-3.887140274E0
3.718203924E1,6.093322754E0,-2.256431818E0,-3.661018610E0
3.720007165E1,6.672984123E0,-2.081157446E0,-2.789433002E0
3.721811987E1,7.185646534E0,-1.798206210E0,-2.519642353E0
3.723614764E1,6.582056999E0,-2.041077614E0,-3.032902718E0
3.725417700E1,6.199205399E0,-2.529811859E0,-3.645465374E0
3.727220245E1,6.561717987E0,-2.874378204E0,-3.320639610E0
3.729023248E1,7.408777237E0,-2.752344131E0,-1.876571178E0
3.730826080E1,8.204390526E0,-2.428116798E0,-9.397810698E-1
3.732629089E1,8.916853905E0,-2.432902336E0,-9.224331379E-1
3.734431921E1,9.604789734E0,-2.011167526E0,-1.288534999E0
3.736234930E1,9.194420815E0,-1.124626637E0,-2.231905222E0
3.738037725E1,9.106484413E0,-4.396811724E-1,-2.626122952E0
3.739840631E1,7.895118237E0,1.316052526E-1,-1.804188251E0
3.741643560E1,7.538587570E0,5.018945336E-1,-1.345962733E-1
3.743446557E1,6.598806858E0,6.580262184E-1,9.894321561E-1
3.745249408E1,6.092126369E0,3.206382394E-1,1.249651670E0
3.747052416E1,6.770491600E0,-3.732803464E-1,6.640082598E-1
3.748855188E1,7.175477028E0,-1.200000525E0,-3.218346536E-1
3.750658233E1,7.381857872E0,-1.489532113E0,-1.489532143E-1
3.752460992E1,8.734998703E0,-8.602197170E-1,2.027917206E-1
3.754263983E1,1.071147060E1,1.896311939E-1,7.806583643E-1
3.756066876E1,1.161117172E1,8.081758618E-1,5.132604837E-1
3.757869885E1,1.208195972E1,7.968099117E-1,5.455635786E-1
3.759672717E1,1.208734322E1,6.317051649E-1,1.367498159E0
3.761475738E1,1.165184975E1,-6.622136831E-1,-5.880361795E-1
3.763278527E1,1.340878010E1,-1.257428288E0,-4.714458942E0
3.765081176E1,1.483789349E1,-1.788036704E0,-3.054438114E0
3.766882806E1,1.373181057E1,-1.746760488E0,1.034895778E-1
3.768687310E1,1.059422207E1,-1.745564103E0,-5.138586760E-1
3.770490460E1,8.456234932E0,-1.551745534E0,-2.776870728E0
3.772293585E1,7.322037220E0,-8.949156404E-1,-3.369094372E0
3.774096087E1,6.454041004E0,-2.823530734E-1,-2.128415823E0
3.775898968E1,6.342176437E0,3.972085714E-1,-9.900303483E-1
3.777701483E1,8.479565620E0,2.727817893E-1,-8.327022791E-1
3.779503314E1,1.103868866E1,-7.417750359E-2,-1.400399446E0
3.781307623E1,1.179123211E1,-6.508477330E-1,-1.681556106E0
3.783110577E1,1.066540909E1,-5.778666735E-1,-1.826920033E0
3.784913507E1,9.262018204E0,-5.228317380E-1,-2.640479803E0
3.786714978E1,9.120841980E0,-4.977070987E-1,-2.468196630E0
3.788519049E1,9.748957634E0,-5.270192027E-1,-1.939980984E0
3.790321142E1,1.013360405E1,-4.642075896E-1,-2.236690998E0
3.792125122E1,1.024905777E1,-3.128615618E-1,-2.366501570E0
3.793926599E1,9.052646637E0,-3.314059377E-1,-1.996212244E0
3.795731268E1,8.593822479E0,-1.489532143E-1,-2.053041935E0
3.797533923E1,8.679964066E0,2.985046208E-1,-2.055434704E0
